type,time stamp,Acc_x,Acc_y,Acc_z,GSR_ohm,PPG_mv,time,trigger
0,3658698,2037,2060,1211,-54873.0000000002,0.0,2025-03-25 11:48:31.392741
0,3658954,2034,2059,1211,-54873.0000000002,0.0,2025-03-25 11:48:31.392801
0,3659210,2036,2061,1212,-54873.0000000002,0.0,2025-03-25 11:48:31.394785
0,3659466,2036,2062,1213,-54873.0000000002,0.0,2025-03-25 11:48:31.405752
0,3659722,2036,2059,1214,-54873.0000000002,0.0,2025-03-25 11:48:31.418787
0,3659978,2032,2062,1210,-54873.0000000002,0.0,2025-03-25 11:48:31.418827
0,3660234,2035,2059,1211,-54873.0000000002,0.0,2025-03-25 11:48:31.434763
0,3660490,2036,2061,1213,-54873.0000000002,0.0,2025-03-25 11:48:31.434801
0,3660746,2035,2060,1213,-78351.00000000028,0.0,2025-03-25 11:48:31.434833
0,3661002,2034,2061,1211,-78351.00000000028,0.0,2025-03-25 11:48:31.454733
0,3661258,2037,2060,1210,-78351.00000000028,0.0,2025-03-25 11:48:31.454770
0,3661514,2035,2060,1209,-78351.00000000028,0.0,2025-03-25 11:48:31.470792
0,3661770,2035,2059,1206,-78351.00000000028,0.0,2025-03-25 11:48:31.478763
0,3662026,2035,2059,1211,-78351.00000000028,0.0,2025-03-25 11:48:31.478798
0,3662282,2037,2060,1211,-78351.00000000028,0.0,2025-03-25 11:48:31.494770
0,3662538,2035,2060,1210,-78351.00000000028,0.0,2025-03-25 11:48:31.494801
0,3662794,2036,2058,1211,-78351.00000000028,0.0,2025-03-25 11:48:31.512706
0,3663050,2034,2058,1210,-78351.00000000028,0.0,2025-03-25 11:48:31.512739
0,3663306,2036,2064,1211,-78351.00000000028,0.0,2025-03-25 11:48:31.512758
0,3663562,2035,2062,1212,-455000.00000000163,0.0,2025-03-25 11:48:31.529794
0,3663818,2035,2058,1213,-455000.00000000163,0.0,2025-03-25 11:48:31.547759
0,3664074,2036,2059,1211,-455000.00000000163,0.0,2025-03-25 11:48:31.552758
0,3664330,2036,2060,1212,-455000.00000000163,0.0,2025-03-25 11:48:31.552792
0,3664586,2035,2059,1209,-455000.00000000163,0.0,2025-03-25 11:48:31.568767
0,3664842,2036,2058,1211,-455000.00000000163,0.0,2025-03-25 11:48:31.578778
0,3665098,2037,2059,1210,-455000.00000000163,0.0,2025-03-25 11:48:31.578808
0,3665354,2034,2062,1213,-455000.00000000163,0.0,2025-03-25 11:48:31.578826
0,3665610,2035,2058,1212,-455000.00000000163,0.0,2025-03-25 11:48:31.603751
0,3665866,2035,2060,1211,-455000.00000000163,0.0,2025-03-25 11:48:31.603786
0,3666122,2036,2060,1210,-455000.00000000163,0.0,2025-03-25 11:48:31.619838
0,3666378,2036,2061,1208,-1501500.0000000054,0.0,2025-03-25 11:48:31.636772
0,3666634,2037,2059,1207,-1501500.0000000054,0.0,2025-03-25 11:48:31.636803
0,3666890,2034,2061,1208,-900900.0000000031,0.0,2025-03-25 11:48:31.638780
0,3667146,2035,2059,1211,-1501500.0000000054,0.0,2025-03-25 11:48:31.638828
0,3667402,2035,2062,1211,-1501500.0000000054,0.0,2025-03-25 11:48:31.649844
0,3667658,2035,2061,1209,-1501500.0000000054,0.0,2025-03-25 11:48:31.669754
0,3667914,2036,2060,1208,-1501500.0000000054,0.0,2025-03-25 11:48:31.669784
0,3668170,2033,2058,1210,-1501500.0000000054,0.0,2025-03-25 11:48:31.671776
0,3668426,2036,2062,1210,-900900.0000000031,0.0,2025-03-25 11:48:31.680805
0,3668682,2036,2061,1212,-900900.0000000031,0.0,2025-03-25 11:48:31.692775
0,3668938,2036,2060,1210,-1501500.0000000054,0.7326007326007326,2025-03-25 11:48:31.694813
0,3669194,2033,2059,1209,-1501500.0000000054,0.0,2025-03-25 11:48:31.704807
0,3669450,2037,2059,1211,-1501500.0000000054,0.0,2025-03-25 11:48:31.704855
0,3669706,2035,2060,1210,-1501500.0000000054,0.0,2025-03-25 11:48:31.718843
0,3669962,2035,2059,1214,-1501500.0000000054,0.0,2025-03-25 11:48:31.733747
0,3670218,2035,2060,1212,-1501500.0000000054,0.0,2025-03-25 11:48:31.733785
0,3670474,2036,2060,1209,-900900.0000000031,0.0,2025-03-25 11:48:31.740879
0,3670730,2035,2059,1212,-1501500.0000000054,0.0,2025-03-25 11:48:31.748777
0,3670986,2035,2059,1211,-1501500.0000000054,0.0,2025-03-25 11:48:31.755772
0,3671242,2035,2058,1212,-900900.0000000031,0.0,2025-03-25 11:48:31.772873
0,3671498,2038,2060,1211,-900900.0000000031,0.0,2025-03-25 11:48:31.772905
0,3671754,2035,2060,1211,-900900.0000000031,0.0,2025-03-25 11:48:31.772923
0,3672010,2035,2060,1211,-1501500.0000000054,0.0,2025-03-25 11:48:31.789829
0,3672266,2032,2058,1211,-1501500.0000000054,0.0,2025-03-25 11:48:31.798698
0,3672522,2034,2061,1212,-900900.0000000031,0.0,2025-03-25 11:48:31.798731
0,3672778,2036,2060,1212,-900900.0000000031,0.0,2025-03-25 11:48:31.814690
0,3673034,2036,2059,1212,-900900.0000000031,0.0,2025-03-25 11:48:31.814721
0,3673290,2036,2060,1211,-1501500.0000000054,0.0,2025-03-25 11:48:31.833632
0,3673546,2035,2060,1213,-1501500.0000000054,0.0,2025-03-25 11:48:31.833663
0,3673802,2034,2059,1213,-1501500.0000000054,0.0,2025-03-25 11:48:31.849675
0,3674058,2036,2060,1212,-900900.0000000031,0.0,2025-03-25 11:48:31.849706
0,3674314,2035,2059,1210,-4504500.000000016,0.0,2025-03-25 11:48:31.857607
0,3674570,2036,2060,1211,-1501500.0000000054,0.0,2025-03-25 11:48:31.875707
0,3674826,2037,2059,1214,-1501500.0000000054,0.0,2025-03-25 11:48:31.877697
0,3675082,2035,2058,1214,-900900.0000000031,0.0,2025-03-25 11:48:31.893808
0,3675338,2035,2060,1212,-900900.0000000031,0.0,2025-03-25 11:48:31.893842
0,3675594,2035,2062,1212,-900900.0000000031,0.0,2025-03-25 11:48:31.893860
0,3675850,2035,2061,1211,-1501500.0000000054,0.0,2025-03-25 11:48:31.909776
0,3676106,2037,2059,1213,-900900.0000000031,0.0,2025-03-25 11:48:31.924802
0,3676362,2035,2059,1212,-1501500.0000000054,0.0,2025-03-25 11:48:31.924833
0,3676618,2037,2061,1214,-1501500.0000000054,0.0,2025-03-25 11:48:31.927803
0,3676874,2036,2061,1214,-900900.0000000031,0.0,2025-03-25 11:48:31.938776
0,3677130,2033,2059,1211,-1501500.0000000054,0.0,2025-03-25 11:48:31.952786
0,3677386,2035,2060,1212,-1501500.0000000054,0.0,2025-03-25 11:48:31.958718
0,3677642,2035,2061,1211,-1501500.0000000054,0.0,2025-03-25 11:48:31.958749
0,3677898,2035,2060,1210,-900900.0000000031,0.0,2025-03-25 11:48:31.982720
0,3678154,2035,2061,1214,-1501500.0000000054,0.0,2025-03-25 11:48:31.989788
0,3678410,2034,2059,1212,-1501500.0000000054,0.0,2025-03-25 11:48:31.989829
0,3678666,2037,2059,1211,-900900.0000000031,0.0,2025-03-25 11:48:31.997783
0,3678922,2035,2060,1211,-1501500.0000000054,0.0,2025-03-25 11:48:32.007806
0,3679178,2035,2059,1212,-900900.0000000031,0.0,2025-03-25 11:48:32.012824
0,3679434,2036,2062,1211,-1501500.0000000054,0.0,2025-03-25 11:48:32.012856
0,3679690,2037,2061,1214,-900900.0000000031,0.0,2025-03-25 11:48:32.024807
0,3679946,2036,2058,1214,-1501500.0000000054,0.0,2025-03-25 11:48:32.032788
0,3680202,2037,2059,1209,-1501500.0000000054,0.0,2025-03-25 11:48:32.038860
0,3680458,2035,2060,1212,-900900.0000000031,0.0,2025-03-25 11:48:32.053779
0,3680714,2036,2059,1211,-900900.0000000031,0.0,2025-03-25 11:48:32.053809
0,3680970,2038,2059,1211,-1501500.0000000054,0.0,2025-03-25 11:48:32.062680
0,3681226,2033,2058,1211,-900900.0000000031,0.0,2025-03-25 11:48:32.069792
0,3681482,2034,2059,1213,-900900.0000000031,0.0,2025-03-25 11:48:32.086769
0,3681738,2036,2061,1211,-900900.0000000031,0.0,2025-03-25 11:48:32.086800
0,3681994,2036,2060,1212,-1501500.0000000054,0.0,2025-03-25 11:48:32.109780
0,3682250,2035,2062,1213,-1501500.0000000054,0.0,2025-03-25 11:48:32.109823
0,3682506,2035,2060,1211,-900900.0000000031,0.0,2025-03-25 11:48:32.112712
0,3682762,2037,2059,1212,-900900.0000000031,0.0,2025-03-25 11:48:32.117768
0,3683018,2037,2060,1208,-1501500.0000000054,0.0,2025-03-25 11:48:32.127752
0,3683274,2036,2061,1208,-1501500.0000000054,0.0,2025-03-25 11:48:32.127785
0,3683530,2035,2060,1211,-1501500.0000000054,0.0,2025-03-25 11:48:32.138764
0,3683786,2034,2060,1213,-1501500.0000000054,0.0,2025-03-25 11:48:32.144799
0,3684042,2034,2058,1213,-900900.0000000031,0.0,2025-03-25 11:48:32.163760
0,3684298,2035,2058,1215,-900900.0000000031,0.0,2025-03-25 11:48:32.163793
0,3684554,2034,2060,1212,-900900.0000000031,0.0,2025-03-25 11:48:32.163813
0,3684810,2035,2058,1211,-900900.0000000031,0.0,2025-03-25 11:48:32.175816
0,3685066,2035,2061,1213,-1501500.0000000054,0.0,2025-03-25 11:48:32.190806
0,3685322,2037,2059,1211,-900900.0000000031,0.0,2025-03-25 11:48:32.198765
0,3685578,2036,2057,1213,-1501500.0000000054,0.0,2025-03-25 11:48:32.214790
0,3685834,2035,2059,1212,-1501500.0000000054,0.0,2025-03-25 11:48:32.214836
0,3686090,2036,2061,1211,-1501500.0000000054,0.0,2025-03-25 11:48:32.214855
0,3686346,2034,2059,1211,-900900.0000000031,0.0,2025-03-25 11:48:32.228742
0,3686602,2035,2059,1211,-900900.0000000031,0.0,2025-03-25 11:48:32.228773
0,3686858,2034,2059,1214,-1501500.0000000054,0.0,2025-03-25 11:48:32.243781
0,3687114,2037,2059,1212,-1501500.0000000054,0.0,2025-03-25 11:48:32.257819
0,3687370,2035,2059,1212,-1501500.0000000054,0.0,2025-03-25 11:48:32.273773
0,3687626,2034,2061,1212,-1501500.0000000054,0.0,2025-03-25 11:48:32.273811
0,3687882,2037,2059,1211,-900900.0000000031,0.0,2025-03-25 11:48:32.275772
0,3688138,2037,2062,1214,-900900.0000000031,0.0,2025-03-25 11:48:32.283657
0,3688394,2035,2062,1214,-900900.0000000031,0.0,2025-03-25 11:48:32.299804
0,3688650,2035,2061,1212,-1501500.0000000054,0.0,2025-03-25 11:48:32.306710
0,3688906,2035,2060,1212,-900900.0000000031,0.0,2025-03-25 11:48:32.306744
0,3689162,2037,2059,1211,-900900.0000000031,0.0,2025-03-25 11:48:32.315775
0,3689418,2036,2061,1209,-1501500.0000000054,0.0,2025-03-25 11:48:32.328201
0,3689674,2036,2058,1212,-1501500.0000000054,0.0,2025-03-25 11:48:32.329822
0,3689930,2039,2061,1211,-1501500.0000000054,0.0,2025-03-25 11:48:32.329853
0,3690186,2034,2060,1214,-1501500.0000000054,0.0,2025-03-25 11:48:32.339784
0,3690442,2035,2060,1213,-900900.0000000031,0.0,2025-03-25 11:48:32.348787
0,3690698,2036,2059,1214,-1501500.0000000054,0.0,2025-03-25 11:48:32.363814
0,3690954,2036,2058,1213,-1501500.0000000054,0.0,2025-03-25 11:48:32.371806
0,3691210,2036,2059,1211,-900900.0000000031,0.0,2025-03-25 11:48:32.371851
0,3691466,2034,2060,1214,-1501500.0000000054,0.0,2025-03-25 11:48:32.387803
0,3691722,2036,2059,1214,-900900.0000000031,0.0,2025-03-25 11:48:32.387838
0,3691978,2037,2061,1213,-900900.0000000031,0.0,2025-03-25 11:48:32.402702
0,3692234,2036,2061,1213,-1501500.0000000054,0.0,2025-03-25 11:48:32.406674
0,3692490,2036,2060,1211,-1501500.0000000054,0.0,2025-03-25 11:48:32.422829
0,3692746,2037,2059,1210,-900900.0000000031,0.0,2025-03-25 11:48:32.422861
0,3693002,2036,2060,1211,-1501500.0000000054,0.0,2025-03-25 11:48:32.422879
0,3693258,2034,2061,1212,-1501500.0000000054,0.0,2025-03-25 11:48:32.438781
0,3693514,2035,2061,1215,-900900.0000000031,0.0,2025-03-25 11:48:32.445654
0,3693770,2036,2061,1212,-1501500.0000000054,0.0,2025-03-25 11:48:32.463806
0,3694026,2037,2059,1209,-900900.0000000031,0.0,2025-03-25 11:48:32.463840
0,3694282,2037,2060,1212,-1501500.0000000054,0.0,2025-03-25 11:48:32.463859
0,3694538,2036,2060,1209,-900900.0000000031,3.663003663003663,2025-03-25 11:48:32.479668
0,3694794,2035,2060,1212,-1501500.0000000054,211.7216117216117,2025-03-25 11:48:32.479701
0,3695050,2034,2062,1211,-1501500.0000000054,262.27106227106225,2025-03-25 11:48:32.487717
0,3695306,2035,2058,1212,-1501500.0000000054,341.3919413919414,2025-03-25 11:48:32.503769
0,3695562,2035,2060,1211,-1501500.0000000054,576.5567765567765,2025-03-25 11:48:32.509749
0,3695818,2035,2060,1212,-1501500.0000000054,905.4945054945055,2025-03-25 11:48:32.509781
0,3696074,2034,2061,1213,-1501500.0000000054,1080.5860805860805,2025-03-25 11:48:32.517773
0,3696330,2036,2060,1214,-1501500.0000000054,1107.6923076923076,2025-03-25 11:48:32.529751
0,3696586,2037,2059,1212,-1501500.0000000054,1172.8937728937728,2025-03-25 11:48:32.554814
0,3696842,2037,2058,1211,-4504500.000000016,1382.4175824175823,2025-03-25 11:48:32.556633
0,3697098,2036,2060,1212,-4504500.000000016,1547.2527472527472,2025-03-25 11:48:32.556663
0,3697354,2035,2060,1212,-4504500.000000016,1525.2747252747251,2025-03-25 11:48:32.556681
0,3697610,2037,2061,1215,-4504500.000000016,1438.095238095238,2025-03-25 11:48:32.569740
0,3697866,2035,2058,1216,-1501500.0000000054,1458.6080586080584,2025-03-25 11:48:32.586856
0,3698122,2038,2062,1214,-1501500.0000000054,1602.197802197802,2025-03-25 11:48:32.586899
0,3698378,2035,2060,1212,-4504500.000000016,1600.7326007326005,2025-03-25 11:48:32.588730
0,3698634,2036,2060,1209,-4504500.000000016,1471.062271062271,2025-03-25 11:48:32.606795
0,3698890,2036,2058,1213,-1501500.0000000054,1375.8241758241757,2025-03-25 11:48:32.606843
0,3699146,2038,2063,1213,-1501500.0000000054,1443.956043956044,2025-03-25 11:48:32.622843
0,3699402,2036,2058,1213,-4504500.000000016,1553.113553113553,2025-03-25 11:48:32.622894
0,3699658,2035,2062,1213,-1501500.0000000054,1478.3882783882782,2025-03-25 11:48:32.636788
0,3699914,2034,2060,1211,-1501500.0000000054,1339.194139194139,2025-03-25 11:48:32.636823
0,3700170,2036,2059,1209,-4504500.000000016,1317.216117216117,2025-03-25 11:48:32.654768
0,3700426,2034,2059,1210,-1501500.0000000054,1434.4322344322343,2025-03-25 11:48:32.657805
0,3700682,2036,2057,1214,-4504500.000000016,1471.7948717948716,2025-03-25 11:48:32.671793
0,3700938,2034,2059,1212,-4504500.000000016,1350.18315018315,2025-03-25 11:48:32.671825
0,3701194,2037,2062,1211,-4504500.000000016,1250.5494505494505,2025-03-25 11:48:32.687738
0,3701450,2039,2060,1214,-1501500.0000000054,1319.4139194139193,2025-03-25 11:48:32.699764
0,3701706,2035,2060,1212,-4504500.000000016,1435.8974358974358,2025-03-25 11:48:32.703875
0,3701962,2038,2060,1213,-4504500.000000016,1402.197802197802,2025-03-25 11:48:32.703913
0,3702218,2038,2062,1213,-1501500.0000000054,1278.3882783882782,2025-03-25 11:48:32.718828
0,3702474,2037,2060,1212,-4504500.000000016,1252.7472527472526,2025-03-25 11:48:32.722799
0,3702730,2035,2058,1212,-1501500.0000000054,1392.6739926739926,2025-03-25 11:48:32.739778
0,3702986,2037,2058,1212,-4504500.000000016,1450.5494505494505,2025-03-25 11:48:32.739810
0,3703242,2036,2059,1212,-1501500.0000000054,1355.3113553113553,2025-03-25 11:48:32.747715
0,3703498,2034,2061,1212,-1501500.0000000054,1252.014652014652,2025-03-25 11:48:32.747745
0,3703754,2035,2058,1214,-1501500.0000000054,1296.7032967032967,2025-03-25 11:48:32.764690
0,3704010,2036,2060,1212,-1501500.0000000054,1441.7582417582416,2025-03-25 11:48:32.764720
0,3704266,2036,2060,1214,-4504500.000000016,1422.7106227106226,2025-03-25 11:48:32.767747
0,3704522,2035,2060,1210,-4504500.000000016,1310.6227106227104,2025-03-25 11:48:32.784731
0,3704778,2037,2058,1211,-1501500.0000000054,1276.923076923077,2025-03-25 11:48:32.788720
0,3705034,2036,2060,1211,-1501500.0000000054,1398.5347985347985,2025-03-25 11:48:32.802772
0,3705290,2036,2061,1214,-1501500.0000000054,1496.7032967032967,2025-03-25 11:48:32.802810
0,3705546,2036,2061,1214,-1501500.0000000054,1414.6520146520145,2025-03-25 11:48:32.808787
0,3705802,2037,2061,1214,-1501500.0000000054,1311.3553113553112,2025-03-25 11:48:32.824802
0,3706058,2035,2058,1210,-1501500.0000000054,1350.18315018315,2025-03-25 11:48:32.826822
0,3706314,2035,2059,1211,-4504500.000000016,1484.9816849816848,2025-03-25 11:48:32.838681
0,3706570,2035,2060,1214,-4504500.000000016,1490.8424908424906,2025-03-25 11:48:32.838715
0,3706826,2035,2059,1213,-1501500.0000000054,1369.230769230769,2025-03-25 11:48:32.854801
0,3707082,2036,2059,1212,-1501500.0000000054,1304.0293040293038,2025-03-25 11:48:32.858708
0,3707338,2038,2060,1210,-1501500.0000000054,1410.2564102564102,2025-03-25 11:48:32.869761
0,3707594,2037,2059,1210,-4504500.000000016,1503.2967032967033,2025-03-25 11:48:32.869794
0,3707850,2035,2060,1211,-1501500.0000000054,1435.164835164835,2025-03-25 11:48:32.892820
0,3708106,2036,2058,1212,-1501500.0000000054,1316.4835164835165,2025-03-25 11:48:32.892851
0,3708362,2036,2061,1214,-4504500.000000016,1323.076923076923,2025-03-25 11:48:32.894761
0,3708618,2036,2061,1211,-1501500.0000000054,1465.201465201465,2025-03-25 11:48:32.906770
0,3708874,2036,2059,1208,-1501500.0000000054,1469.5970695970695,2025-03-25 11:48:32.918788
0,3709130,2035,2059,1213,-4504500.000000016,1347.985347985348,2025-03-25 11:48:32.918821
0,3709386,2035,2061,1212,-4504500.000000016,1263.7362637362637,2025-03-25 11:48:32.927823
0,3709642,2036,2061,1212,-1501500.0000000054,1340.6593406593406,2025-03-25 11:48:32.942953
0,3709898,2036,2061,1210,-1501500.0000000054,1460.07326007326,2025-03-25 11:48:32.942997
0,3710154,2034,2061,1210,-1501500.0000000054,1399.2673992673992,2025-03-25 11:48:32.957691
0,3710410,2037,2060,1212,-1501500.0000000054,1275.4578754578754,2025-03-25 11:48:32.957723
0,3710666,2036,2059,1211,-4504500.000000016,1268.8644688644688,2025-03-25 11:48:32.972757
0,3710922,2034,2059,1211,-1501500.0000000054,1402.9304029304028,2025-03-25 11:48:32.978793
0,3711178,2035,2060,1212,-1501500.0000000054,1456.4102564102564,2025-03-25 11:48:32.978824
0,3711434,2034,2060,1211,-1501500.0000000054,1349.4505494505493,2025-03-25 11:48:32.994765
0,3711690,2035,2060,1211,-4504500.000000016,1258.6080586080586,2025-03-25 11:48:32.996779
0,3711946,2035,2059,1210,-1501500.0000000054,1331.135531135531,2025-03-25 11:48:33.012842
0,3712202,2034,2059,1211,-1501500.0000000054,1455.6776556776556,2025-03-25 11:48:33.012873
0,3712458,2036,2060,1211,-4504500.000000016,1429.3040293040292,2025-03-25 11:48:33.012891
0,3712714,2036,2060,1213,-4504500.000000016,1307.6923076923076,2025-03-25 11:48:33.038743
0,3712970,2037,2060,1212,-4504500.000000016,1279.8534798534797,2025-03-25 11:48:33.038775
0,3713226,2035,2059,1209,-1501500.0000000054,1421.9780219780218,2025-03-25 11:48:33.056805
0,3713482,2037,2059,1210,-1501500.0000000054,1491.5750915750914,2025-03-25 11:48:33.056837
0,3713738,2035,2059,1212,-4504500.000000016,1405.8608058608058,2025-03-25 11:48:33.062773
0,3713994,2036,2059,1213,-1501500.0000000054,1306.227106227106,2025-03-25 11:48:33.069789
0,3714250,2035,2059,1214,-1501500.0000000054,1347.985347985348,2025-03-25 11:48:33.084749
0,3714506,2037,2058,1213,-4504500.000000016,1493.040293040293,2025-03-25 11:48:33.084781
0,3714762,2038,2061,1213,-1501500.0000000054,1471.7948717948716,2025-03-25 11:48:33.086792
0,3715018,2037,2060,1212,-4504500.000000016,1348.7179487179487,2025-03-25 11:48:33.103813
0,3715274,2034,2060,1213,-1501500.0000000054,1296.7032967032967,2025-03-25 11:48:33.112817
0,3715530,2037,2061,1213,-1501500.0000000054,1400.7326007326005,2025-03-25 11:48:33.119943
0,3715786,2036,2059,1211,-4504500.000000016,1487.9120879120878,2025-03-25 11:48:33.119976
0,3716042,2034,2060,1212,-1501500.0000000054,1397.8021978021977,2025-03-25 11:48:33.146747
0,3716298,2034,2059,1209,-1501500.0000000054,1282.051282051282,2025-03-25 11:48:33.150807
0,3716554,2035,2060,1212,-4504500.000000016,1312.087912087912,2025-03-25 11:48:33.150842
0,3716810,2034,2062,1212,-1501500.0000000054,1452.014652014652,2025-03-25 11:48:33.166810
0,3717066,2034,2060,1215,-4504500.000000016,1468.8644688644688,2025-03-25 11:48:33.166845
0,3717322,2036,2060,1214,-4504500.000000016,1353.8461538461538,2025-03-25 11:48:33.166864
0,3717578,2036,2059,1211,-1501500.0000000054,1290.10989010989,2025-03-25 11:48:33.181815
0,3717834,2038,2061,1212,-1501500.0000000054,1393.4065934065934,2025-03-25 11:48:33.191854
0,3718090,2036,2058,1211,-1501500.0000000054,1487.179487179487,2025-03-25 11:48:33.196753
0,3718346,2035,2060,1213,-4504500.000000016,1423.4432234432234,2025-03-25 11:48:33.214769
0,3718602,2036,2059,1212,-4504500.000000016,1304.7619047619046,2025-03-25 11:48:33.214802
0,3718858,2035,2060,1213,-1501500.0000000054,1304.7619047619046,2025-03-25 11:48:33.216733
0,3719114,2037,2060,1211,-1501500.0000000054,1448.3516483516482,2025-03-25 11:48:33.236801
0,3719370,2036,2059,1210,-4504500.000000016,1465.201465201465,2025-03-25 11:48:33.236832
0,3719626,2036,2058,1213,-4504500.000000016,1347.2527472527472,2025-03-25 11:48:33.236849
0,3719882,2036,2057,1215,-4504500.000000016,1259.3406593406592,2025-03-25 11:48:33.253797
0,3720138,2036,2060,1211,-4504500.000000016,1331.135531135531,2025-03-25 11:48:33.259831
0,3720394,2035,2060,1209,-1501500.0000000054,1458.6080586080584,2025-03-25 11:48:33.266788
0,3720650,2038,2062,1213,-4504500.000000016,1409.5238095238094,2025-03-25 11:48:33.266821
0,3720906,2036,2062,1211,-4504500.000000016,1290.8424908424909,2025-03-25 11:48:33.276803
0,3721162,2035,2058,1212,-1501500.0000000054,1282.7838827838827,2025-03-25 11:48:33.284803
0,3721418,2035,2059,1213,-1501500.0000000054,1417.5824175824175,2025-03-25 11:48:33.304728
0,3721674,2037,2059,1212,-4504500.000000016,1477.6556776556777,2025-03-25 11:48:33.304760
0,3721930,2035,2059,1212,-1501500.0000000054,1382.4175824175823,2025-03-25 11:48:33.312763
0,3722186,2035,2061,1212,-4504500.000000016,1297.4358974358975,2025-03-25 11:48:33.318732
0,3722442,2037,2059,1211,-1501500.0000000054,1369.230769230769,2025-03-25 11:48:33.337724
0,3722698,2035,2059,1211,-4504500.000000016,1493.040293040293,2025-03-25 11:48:33.337753
0,3722954,2037,2061,1212,-1501500.0000000054,1460.07326007326,2025-03-25 11:48:33.337770
0,3723210,2036,2060,1211,-4504500.000000016,1325.2747252747251,2025-03-25 11:48:33.357770
0,3723466,2037,2062,1211,-1501500.0000000054,1284.2490842490843,2025-03-25 11:48:33.357799
0,3723722,2038,2061,1212,-1501500.0000000054,1417.5824175824175,2025-03-25 11:48:33.391723
0,3723978,2036,2058,1212,-1501500.0000000054,1478.3882783882782,2025-03-25 11:48:33.391754
0,3724234,2035,2059,1212,-1501500.0000000054,1386.080586080586,2025-03-25 11:48:33.393758
0,3724490,2035,2060,1211,-1501500.0000000054,1278.3882783882782,2025-03-25 11:48:33.393789
0,3724746,2036,2060,1210,-4504500.000000016,1317.216117216117,2025-03-25 11:48:33.393807
0,3725002,2036,2061,1213,-4504500.000000016,1463.7362637362637,2025-03-25 11:48:33.411795
0,3725258,2035,2060,1214,-1501500.0000000054,1448.3516483516482,2025-03-25 11:48:33.414785
0,3725514,2037,2062,1214,-4504500.000000016,1331.135531135531,2025-03-25 11:48:33.414819
0,3725770,2038,2060,1211,-4504500.000000016,1285.7142857142856,2025-03-25 11:48:33.429897
0,3726026,2038,2059,1212,-1501500.0000000054,1399.2673992673992,2025-03-25 11:48:33.438796
0,3726282,2035,2060,1213,-4504500.000000016,1499.6336996336995,2025-03-25 11:48:33.454643
0,3726538,2033,2058,1212,-1501500.0000000054,1419.7802197802198,2025-03-25 11:48:33.456785
0,3726794,2038,2060,1213,-4504500.000000016,1306.227106227106,2025-03-25 11:48:33.456819
0,3727050,2036,2059,1213,-1501500.0000000054,1328.937728937729,2025-03-25 11:48:33.473637
0,3727306,2035,2059,1216,-1501500.0000000054,1461.5384615384614,2025-03-25 11:48:33.473668
0,3727562,2037,2059,1212,-1501500.0000000054,1473.260073260073,2025-03-25 11:48:33.473688
0,3727818,2038,2058,1211,-4504500.000000016,1352.3809523809523,2025-03-25 11:48:33.489682
0,3728074,2034,2059,1212,-1501500.0000000054,1284.2490842490843,2025-03-25 11:48:33.506817
0,3728330,2037,2060,1211,-1501500.0000000054,1386.8131868131868,2025-03-25 11:48:33.506849
0,3728586,2034,2059,1211,-4504500.000000016,1484.2490842490843,2025-03-25 11:48:33.506866
0,3728842,2036,2061,1210,-1501500.0000000054,1421.9780219780218,2025-03-25 11:48:33.523917
0,3729098,2035,2060,1210,-1501500.0000000054,1296.7032967032967,2025-03-25 11:48:33.529812
0,3729354,2036,2059,1213,-4504500.000000016,1292.3076923076922,2025-03-25 11:48:33.538796
0,3729610,2037,2059,1214,-1501500.0000000054,1432.9670329670328,2025-03-25 11:48:33.554904
0,3729866,2035,2060,1215,-4504500.000000016,1450.5494505494505,2025-03-25 11:48:33.554935
0,3730122,2034,2060,1213,-1501500.0000000054,1338.4615384615383,2025-03-25 11:48:33.556738
0,3730378,2035,2061,1215,-4504500.000000016,1259.3406593406592,2025-03-25 11:48:33.573648
0,3730634,2035,2057,1212,-4504500.000000016,1339.194139194139,2025-03-25 11:48:33.578779
0,3730890,2035,2060,1214,-4504500.000000016,1476.1904761904761,2025-03-25 11:48:33.578810
0,3731146,2035,2060,1215,-1501500.0000000054,1430.7692307692307,2025-03-25 11:48:33.598801
0,3731402,2036,2058,1214,-1501500.0000000054,1315.7509157509157,2025-03-25 11:48:33.598831
0,3731658,2037,2057,1211,-1501500.0000000054,1309.89010989011,2025-03-25 11:48:33.617848
0,3731914,2035,2060,1212,-1501500.0000000054,1447.6190476190475,2025-03-25 11:48:33.617918
0,3732170,2035,2059,1214,-1501500.0000000054,1506.9597069597069,2025-03-25 11:48:33.617936
0,3732426,2038,2061,1213,-4504500.000000016,1401.4652014652013,2025-03-25 11:48:33.635820
0,3732682,2036,2059,1214,-4504500.000000016,1300.3663003663003,2025-03-25 11:48:33.635853
0,3732938,2036,2060,1212,-1501500.0000000054,1358.974358974359,2025-03-25 11:48:33.654800
0,3733194,2035,2059,1211,-1501500.0000000054,1476.923076923077,2025-03-25 11:48:33.656808
0,3733450,2034,2059,1212,-1501500.0000000054,1442.4908424908424,2025-03-25 11:48:33.674827
0,3733706,2036,2061,1211,-1501500.0000000054,1306.9597069597069,2025-03-25 11:48:33.674859
0,3733962,2035,2060,1213,-1501500.0000000054,1265.9340659340658,2025-03-25 11:48:33.676828
0,3734218,2033,2060,1214,-1501500.0000000054,1402.9304029304028,2025-03-25 11:48:33.691791
0,3734474,2033,2060,1213,-1501500.0000000054,1478.3882783882782,2025-03-25 11:48:33.698811
0,3734730,2034,2060,1210,-4504500.000000016,1398.5347985347985,2025-03-25 11:48:33.713835
0,3734986,2037,2059,1214,-1501500.0000000054,1295.970695970696,2025-03-25 11:48:33.713877
0,3735242,2034,2058,1211,-1501500.0000000054,1333.3333333333333,2025-03-25 11:48:33.713894
0,3735498,2038,2060,1215,-1501500.0000000054,1479.8534798534797,2025-03-25 11:48:33.732768
0,3735754,2035,2061,1213,-1501500.0000000054,1464.4688644688645,2025-03-25 11:48:33.736760
0,3736010,2037,2060,1213,-1501500.0000000054,1339.194139194139,2025-03-25 11:48:33.736800
0,3736266,2036,2060,1213,-1501500.0000000054,1280.5860805860805,2025-03-25 11:48:33.756787
0,3736522,2037,2060,1213,-1501500.0000000054,1380.2197802197802,2025-03-25 11:48:33.758765
0,3736778,2033,2058,1212,-1501500.0000000054,1476.923076923077,2025-03-25 11:48:33.769732
0,3737034,2036,2062,1212,-4504500.000000016,1398.5347985347985,2025-03-25 11:48:33.769768
0,3737290,2032,2060,1210,-1501500.0000000054,1286.4468864468863,2025-03-25 11:48:33.776667
0,3737546,2036,2061,1212,-1501500.0000000054,1312.087912087912,2025-03-25 11:48:33.786726
0,3737802,2035,2061,1210,-1501500.0000000054,1449.084249084249,2025-03-25 11:48:33.797712
0,3738058,2036,2060,1211,-1501500.0000000054,1465.9340659340658,2025-03-25 11:48:33.797747
0,3738314,2038,2060,1212,-1501500.0000000054,1349.4505494505493,2025-03-25 11:48:33.807832
0,3738570,2034,2059,1211,-1501500.0000000054,1281.3186813186812,2025-03-25 11:48:33.819168
0,3738826,2035,2061,1211,-1501500.0000000054,1386.8131868131868,2025-03-25 11:48:33.834809
0,3739082,2037,2058,1212,-4504500.000000016,1495.2380952380952,2025-03-25 11:48:33.837703
0,3739338,2036,2060,1212,-1501500.0000000054,1443.2234432234432,2025-03-25 11:48:33.837738
0,3739594,2035,2059,1210,-1501500.0000000054,1325.2747252747251,2025-03-25 11:48:33.848768
0,3739850,2035,2057,1213,-1501500.0000000054,1322.3443223443223,2025-03-25 11:48:33.859764
0,3740106,2034,2062,1210,-1501500.0000000054,1469.5970695970695,2025-03-25 11:48:33.876727
0,3740362,2037,2059,1212,-1501500.0000000054,1491.5750915750914,2025-03-25 11:48:33.876759
0,3740618,2038,2060,1210,-4504500.000000016,1382.4175824175823,2025-03-25 11:48:33.897718
0,3740874,2036,2060,1209,-4504500.000000016,1294.5054945054944,2025-03-25 11:48:33.897749
0,3741130,2036,2061,1211,-4504500.000000016,1361.904761904762,2025-03-25 11:48:33.897766
0,3741386,2036,2059,1211,-1501500.0000000054,1487.179487179487,2025-03-25 11:48:33.914804
0,3741642,2036,2062,1212,-4504500.000000016,1433.6996336996335,2025-03-25 11:48:33.914834
0,3741898,2035,2061,1212,-1501500.0000000054,1314.2857142857142,2025-03-25 11:48:33.919745
0,3742154,2037,2059,1212,-4504500.000000016,1306.227106227106,2025-03-25 11:48:33.936754
0,3742410,2034,2060,1213,-1501500.0000000054,1440.2930402930401,2025-03-25 11:48:33.952804
0,3742666,2033,2059,1211,-900900.0000000031,1502.5641025641025,2025-03-25 11:48:33.952846
0,3742922,2036,2060,1210,-4504500.000000016,1399.2673992673992,2025-03-25 11:48:33.957811
0,3743178,2036,2059,1212,-1501500.0000000054,1304.0293040293038,2025-03-25 11:48:33.964737
0,3743434,2036,2061,1211,-4504500.000000016,1375.091575091575,2025-03-25 11:48:33.972798
0,3743690,2035,2060,1212,-4504500.000000016,1513.5531135531135,2025-03-25 11:48:33.977712
0,3743946,2036,2060,1211,-1501500.0000000054,1501.8315018315018,2025-03-25 11:48:33.977741
0,3744202,2036,2060,1213,-1501500.0000000054,1383.150183150183,2025-03-25 11:48:33.993753
0,3744458,2036,2059,1212,-4504500.000000016,1342.1245421245421,2025-03-25 11:48:34.008829
0,3744714,2035,2060,1211,-1501500.0000000054,1465.9340659340658,2025-03-25 11:48:34.016798
0,3744970,2037,2060,1214,-4504500.000000016,1524.5421245421244,2025-03-25 11:48:34.016827
0,3745226,2036,2060,1214,-4504500.000000016,1430.03663003663,2025-03-25 11:48:34.016844
0,3745482,2036,2059,1213,-1501500.0000000054,1312.8205128205127,2025-03-25 11:48:34.033782
0,3745738,2035,2061,1215,-1501500.0000000054,1337.7289377289376,2025-03-25 11:48:34.036848
0,3745994,2035,2059,1213,-4504500.000000016,1476.923076923077,2025-03-25 11:48:34.044733
0,3746250,2035,2060,1213,-4504500.000000016,1460.8058608058607,2025-03-25 11:48:34.044763
0,3746506,2034,2060,1212,-1501500.0000000054,1336.263736263736,2025-03-25 11:48:34.057737
0,3746762,2036,2061,1212,-1501500.0000000054,1276.1904761904761,2025-03-25 11:48:34.077753
0,3747018,2034,2061,1213,-4504500.000000016,1373.6263736263736,2025-03-25 11:48:34.079770
0,3747274,2037,2061,1211,-1501500.0000000054,1474.7252747252746,2025-03-25 11:48:34.091799
0,3747530,2035,2058,1211,-4504500.000000016,1391.9413919413919,2025-03-25 11:48:34.091829
0,3747786,2034,2059,1214,-1501500.0000000054,1275.4578754578754,2025-03-25 11:48:34.097702
0,3748042,2038,2060,1212,-1501500.0000000054,1298.9010989010987,2025-03-25 11:48:34.106745
0,3748298,2036,2061,1212,-4504500.000000016,1437.3626373626373,2025-03-25 11:48:34.121683
0,3748554,2035,2060,1211,-1501500.0000000054,1457.8754578754579,2025-03-25 11:48:34.121712
0,3748810,2035,2059,1212,-1501500.0000000054,1342.1245421245421,2025-03-25 11:48:34.148741
0,3749066,2034,2057,1213,-4504500.000000016,1270.3296703296703,2025-03-25 11:48:34.148771
0,3749322,2034,2061,1214,-1501500.0000000054,1370.6959706959706,2025-03-25 11:48:34.148788
0,3749578,2036,2059,1214,-4504500.000000016,1478.3882783882782,2025-03-25 11:48:34.164426
0,3749834,2036,2060,1212,-1501500.0000000054,1429.3040293040292,2025-03-25 11:48:34.171799
0,3750090,2036,2061,1214,-1501500.0000000054,1311.3553113553112,2025-03-25 11:48:34.171834
0,3750346,2035,2061,1211,-4504500.000000016,1309.89010989011,2025-03-25 11:48:34.186771
0,3750602,2035,2058,1212,-4504500.000000016,1460.07326007326,2025-03-25 11:48:34.186803
0,3750858,2034,2060,1215,-1501500.0000000054,1497.4358974358972,2025-03-25 11:48:34.186841
0,3751114,2036,2060,1213,-1501500.0000000054,1397.069597069597,2025-03-25 11:48:34.202786
0,3751370,2038,2060,1213,-1501500.0000000054,1316.4835164835165,2025-03-25 11:48:34.211782
0,3751626,2035,2060,1212,-1501500.0000000054,1386.080586080586,2025-03-25 11:48:34.218734
0,3751882,2034,2060,1212,-4504500.000000016,1514.2857142857142,2025-03-25 11:48:34.234785
0,3752138,2036,2059,1211,-1501500.0000000054,1461.5384615384614,2025-03-25 11:48:34.234815
0,3752394,2037,2062,1214,-1501500.0000000054,1336.263736263736,2025-03-25 11:48:34.236779
0,3752650,2035,2058,1212,-4504500.000000016,1317.9487179487178,2025-03-25 11:48:34.252766
0,3752906,2036,2059,1210,-4504500.000000016,1446.8864468864467,2025-03-25 11:48:34.258781
0,3753162,2036,2059,1211,-1501500.0000000054,1507.6923076923076,2025-03-25 11:48:34.266727
0,3753418,2035,2061,1211,-4504500.000000016,1400.7326007326005,2025-03-25 11:48:34.266756
0,3753674,2035,2061,1212,-1501500.0000000054,1294.5054945054944,2025-03-25 11:48:34.281755
0,3753930,2036,2061,1210,-4504500.000000016,1348.7179487179487,2025-03-25 11:48:34.284763
0,3754186,2037,2061,1210,-1501500.0000000054,1476.923076923077,2025-03-25 11:48:34.299785
0,3754442,2037,2062,1212,-4504500.000000016,1458.6080586080584,2025-03-25 11:48:34.299816
0,3754698,2034,2061,1211,-1501500.0000000054,1336.263736263736,2025-03-25 11:48:34.316984
0,3754954,2037,2061,1212,-4504500.000000016,1300.3663003663003,2025-03-25 11:48:34.328794
0,3755210,2034,2062,1211,-1501500.0000000054,1433.6996336996335,2025-03-25 11:48:34.344861
0,3755466,2035,2060,1211,-4504500.000000016,1505.4945054945053,2025-03-25 11:48:34.344891
0,3755722,2037,2058,1212,-4504500.000000016,1413.9194139194137,2025-03-25 11:48:34.361736
0,3755978,2037,2057,1212,-1501500.0000000054,1298.168498168498,2025-03-25 11:48:34.361766
0,3756234,2035,2059,1212,-1501500.0000000054,1327.4725274725274,2025-03-25 11:48:34.374797
0,3756490,2038,2062,1212,-1501500.0000000054,1476.1904761904761,2025-03-25 11:48:34.377857
0,3756746,2034,2058,1216,-1501500.0000000054,1470.3296703296703,2025-03-25 11:48:34.388801
0,3757002,2035,2060,1212,-1501500.0000000054,1356.0439560439559,2025-03-25 11:48:34.388831
0,3757258,2038,2063,1211,-1501500.0000000054,1304.7619047619046,2025-03-25 11:48:34.391772
0,3757514,2036,2061,1213,-1501500.0000000054,1410.2564102564102,2025-03-25 11:48:34.408782
0,3757770,2034,2059,1213,-1501500.0000000054,1513.5531135531135,2025-03-25 11:48:34.408813
0,3758026,2034,2059,1210,-4504500.000000016,1431.5018315018315,2025-03-25 11:48:34.408831
0,3758282,2035,2059,1212,-1501500.0000000054,1312.087912087912,2025-03-25 11:48:34.426777
0,3758538,2036,2060,1211,-4504500.000000016,1328.937728937729,2025-03-25 11:48:34.426807
0,3758794,2035,2061,1208,-4504500.000000016,1460.8058608058607,2025-03-25 11:48:34.442797
0,3759050,2036,2060,1210,-1501500.0000000054,1487.179487179487,2025-03-25 11:48:34.442828
0,3759306,2035,2060,1212,-1501500.0000000054,1370.6959706959706,2025-03-25 11:48:34.456865
0,3759562,2035,2058,1213,-4504500.000000016,1295.2380952380952,2025-03-25 11:48:34.456899
0,3759818,2036,2059,1212,-1501500.0000000054,1391.9413919413919,2025-03-25 11:48:34.463908
0,3760074,2036,2059,1214,-1501500.0000000054,1496.7032967032967,2025-03-25 11:48:34.479813
0,3760330,2036,2060,1213,-1501500.0000000054,1442.4908424908424,2025-03-25 11:48:34.492741
0,3760586,2035,2061,1212,-4504500.000000016,1322.3443223443223,2025-03-25 11:48:34.492772
0,3760842,2035,2061,1211,-1501500.0000000054,1315.7509157509157,2025-03-25 11:48:34.497754
0,3761098,2035,2059,1211,-1501500.0000000054,1460.07326007326,2025-03-25 11:48:34.512618
0,3761354,2035,2058,1213,-4504500.000000016,1486.4468864468863,2025-03-25 11:48:34.512665
0,3761610,2036,2060,1214,-1501500.0000000054,1375.091575091575,2025-03-25 11:48:34.512684
0,3761866,2033,2062,1213,-1501500.0000000054,1287.9120879120878,2025-03-25 11:48:34.534789
0,3762122,2035,2059,1211,-1501500.0000000054,1362.6373626373625,2025-03-25 11:48:34.538776
0,3762378,2036,2060,1209,-1501500.0000000054,1497.4358974358972,2025-03-25 11:48:34.553740
0,3762634,2034,2059,1210,-4504500.000000016,1446.8864468864467,2025-03-25 11:48:34.553804
0,3762890,2034,2061,1215,-4504500.000000016,1314.2857142857142,2025-03-25 11:48:34.562782
0,3763146,2035,2061,1215,-1501500.0000000054,1286.4468864468863,2025-03-25 11:48:34.569870
0,3763402,2036,2060,1210,-4504500.000000016,1410.989010989011,2025-03-25 11:48:34.586766
0,3763658,2034,2060,1210,-4504500.000000016,1476.1904761904761,2025-03-25 11:48:34.586798
0,3763914,2035,2057,1213,-1501500.0000000054,1377.2893772893772,2025-03-25 11:48:34.586816
0,3764170,2037,2060,1214,-4504500.000000016,1280.5860805860805,2025-03-25 11:48:34.604916
0,3764426,2036,2061,1211,-1501500.0000000054,1345.7875457875457,2025-03-25 11:48:34.606774
0,3764682,2035,2061,1212,-4504500.000000016,1483.5164835164835,2025-03-25 11:48:34.618673
0,3764938,2034,2057,1209,-1501500.0000000054,1465.9340659340658,2025-03-25 11:48:34.624819
0,3765194,2035,2059,1211,-1501500.0000000054,1335.5311355311355,2025-03-25 11:48:34.634864
0,3765450,2036,2059,1209,-4504500.000000016,1285.7142857142856,2025-03-25 11:48:34.634896
0,3765706,2035,2060,1213,-4504500.000000016,1405.8608058608058,2025-03-25 11:48:34.646783
0,3765962,2037,2058,1214,-4504500.000000016,1469.5970695970695,2025-03-25 11:48:34.673754
0,3766218,2036,2057,1213,-1501500.0000000054,1380.2197802197802,2025-03-25 11:48:34.673790
0,3766474,2036,2060,1211,-1501500.0000000054,1271.062271062271,2025-03-25 11:48:34.673809
0,3766730,2036,2059,1210,-4504500.000000016,1309.1575091575091,2025-03-25 11:48:34.687740
0,3766986,2035,2058,1212,-4504500.000000016,1468.8644688644688,2025-03-25 11:48:34.689811
0,3767242,2036,2058,1212,-1501500.0000000054,1471.7948717948716,2025-03-25 11:48:34.689848
0,3767498,2035,2060,1211,-1501500.0000000054,1366.3003663003662,2025-03-25 11:48:34.713845
0,3767754,2036,2059,1212,-1501500.0000000054,1320.14652014652,2025-03-25 11:48:34.717816
0,3768010,2036,2058,1209,-1501500.0000000054,1425.6410256410256,2025-03-25 11:48:34.726839
0,3768266,2036,2059,1211,-1501500.0000000054,1528.937728937729,2025-03-25 11:48:34.726870
0,3768522,2036,2060,1212,-1501500.0000000054,1446.153846153846,2025-03-25 11:48:34.726887
0,3768778,2036,2061,1210,-1501500.0000000054,1320.14652014652,2025-03-25 11:48:34.743801
0,3769034,2035,2060,1212,-1501500.0000000054,1328.2051282051282,2025-03-25 11:48:34.747813
0,3769290,2036,2058,1212,-4504500.000000016,1454.9450549450548,2025-03-25 11:48:34.757790
0,3769546,2037,2060,1211,-1501500.0000000054,1468.131868131868,2025-03-25 11:48:34.757821
0,3769802,2035,2060,1215,-1501500.0000000054,1342.1245421245421,2025-03-25 11:48:34.773693
0,3770058,2034,2059,1213,-1501500.0000000054,1263.003663003663,2025-03-25 11:48:34.773725
0,3770314,2037,2061,1213,-1501500.0000000054,1358.974358974359,2025-03-25 11:48:34.789838
0,3770570,2036,2059,1210,-1501500.0000000054,1470.3296703296703,2025-03-25 11:48:34.801745
0,3770826,2035,2059,1212,-4504500.000000016,1424.1758241758241,2025-03-25 11:48:34.801778
0,3771082,2037,2057,1212,-1501500.0000000054,1309.1575091575091,2025-03-25 11:48:34.808769
0,3771338,2034,2060,1212,-1501500.0000000054,1309.1575091575091,2025-03-25 11:48:34.824947
0,3771594,2035,2060,1215,-1501500.0000000054,1462.2710622710622,2025-03-25 11:48:34.824979
0,3771850,2035,2062,1212,-4504500.000000016,1496.7032967032967,2025-03-25 11:48:34.841728
0,3772106,2035,2059,1210,-1501500.0000000054,1394.8717948717947,2025-03-25 11:48:34.841762
0,3772362,2035,2059,1211,-1501500.0000000054,1309.89010989011,2025-03-25 11:48:34.847768
0,3772618,2037,2060,1212,-1501500.0000000054,1376.5567765567764,2025-03-25 11:48:34.867809
0,3772874,2036,2060,1213,-1501500.0000000054,1506.9597069597069,2025-03-25 11:48:34.867844
0,3773130,2035,2059,1213,-4504500.000000016,1458.6080586080584,2025-03-25 11:48:34.883695
0,3773386,2035,2060,1210,-1501500.0000000054,1334.7985347985348,2025-03-25 11:48:34.883727
0,3773642,2035,2060,1209,-4504500.000000016,1312.087912087912,2025-03-25 11:48:34.883744
0,3773898,2034,2059,1213,-1501500.0000000054,1435.164835164835,2025-03-25 11:48:34.898698
0,3774154,2035,2059,1215,-1501500.0000000054,1493.040293040293,2025-03-25 11:48:34.906839
0,3774410,2036,2058,1215,-1501500.0000000054,1386.080586080586,2025-03-25 11:48:34.922793
0,3774666,2034,2061,1212,-4504500.000000016,1283.5164835164835,2025-03-25 11:48:34.922825
0,3774922,2036,2061,1211,-1501500.0000000054,1340.6593406593406,2025-03-25 11:48:34.938801
0,3775178,2033,2061,1211,-4504500.000000016,1474.7252747252746,2025-03-25 11:48:34.941783
0,3775434,2034,2059,1211,-4504500.000000016,1462.2710622710622,2025-03-25 11:48:34.948814
0,3775690,2034,2059,1213,-1501500.0000000054,1340.6593406593406,2025-03-25 11:48:34.964754
0,3775946,2035,2060,1211,-1501500.0000000054,1301.8315018315018,2025-03-25 11:48:34.964784
0,3776202,2036,2061,1211,-1501500.0000000054,1431.5018315018315,2025-03-25 11:48:34.971680
0,3776458,2037,2061,1211,-1501500.0000000054,1504.7619047619046,2025-03-25 11:48:34.979795
0,3776714,2034,2060,1213,-1501500.0000000054,1419.047619047619,2025-03-25 11:48:34.996734
0,3776970,2036,2061,1214,-1501500.0000000054,1304.7619047619046,2025-03-25 11:48:34.996766
0,3777226,2035,2059,1215,-1501500.0000000054,1328.2051282051282,2025-03-25 11:48:35.001739
0,3777482,2035,2058,1211,-1501500.0000000054,1473.260073260073,2025-03-25 11:48:35.017731
0,3777738,2034,2061,1214,-4504500.000000016,1464.4688644688645,2025-03-25 11:48:35.019818
0,3777994,2034,2061,1212,-4504500.000000016,1342.8571428571427,2025-03-25 11:48:35.019861
0,3778250,2034,2059,1214,-1501500.0000000054,1280.5860805860805,2025-03-25 11:48:35.036692
0,3778506,2033,2059,1211,-1501500.0000000054,1384.6153846153845,2025-03-25 11:48:35.036724
0,3778762,2035,2060,1214,-1501500.0000000054,1496.7032967032967,2025-03-25 11:48:35.054814
0,3779018,2036,2059,1213,-1501500.0000000054,1429.3040293040292,2025-03-25 11:48:35.054846
0,3779274,2034,2060,1210,-1501500.0000000054,1318.6813186813185,2025-03-25 11:48:35.056747
0,3779530,2033,2061,1212,-1501500.0000000054,1337.7289377289376,2025-03-25 11:48:35.072727
0,3779786,2036,2057,1214,-1501500.0000000054,1468.8644688644688,2025-03-25 11:48:35.078819
0,3780042,2036,2058,1214,-4504500.000000016,1484.2490842490843,2025-03-25 11:48:35.118791
0,3780298,2034,2059,1214,-1501500.0000000054,1359.7069597069597,2025-03-25 11:48:35.121736
0,3780554,2034,2059,1214,-1501500.0000000054,1279.120879120879,2025-03-25 11:48:35.121767
0,3780810,2034,2060,1209,-1501500.0000000054,1370.6959706959706,2025-03-25 11:48:35.121784
0,3781066,2036,2059,1211,-1501500.0000000054,1475.4578754578754,2025-03-25 11:48:35.123771
0,3781322,2036,2058,1212,-1501500.0000000054,1422.7106227106226,2025-03-25 11:48:35.123802
0,3781578,2034,2058,1214,-1501500.0000000054,1305.4945054945053,2025-03-25 11:48:35.143775
0,3781834,2038,2061,1214,-4504500.000000016,1304.0293040293038,2025-03-25 11:48:35.143806
0,3782090,2036,2062,1213,-1501500.0000000054,1454.212454212454,2025-03-25 11:48:35.143823
0,3782346,2037,2060,1210,-1501500.0000000054,1486.4468864468863,2025-03-25 11:48:35.158716
0,3782602,2035,2059,1213,-1501500.0000000054,1382.4175824175823,2025-03-25 11:48:35.167753
0,3782858,2035,2059,1212,-1501500.0000000054,1299.6336996336995,2025-03-25 11:48:35.167784
0,3783114,2037,2059,1214,-1501500.0000000054,1372.161172161172,2025-03-25 11:48:35.184781
0,3783370,2033,2061,1212,-1501500.0000000054,1501.8315018315018,2025-03-25 11:48:35.186771
0,3783626,2033,2059,1211,-4504500.000000016,1453.4798534798533,2025-03-25 11:48:35.186811
0,3783882,2034,2058,1207,-4504500.000000016,1326.007326007326,2025-03-25 11:48:35.206771
0,3784138,2035,2059,1212,-1501500.0000000054,1298.168498168498,2025-03-25 11:48:35.206805
0,3784394,2036,2060,1212,-1501500.0000000054,1417.5824175824175,2025-03-25 11:48:35.218797
0,3784650,2038,2061,1213,-4504500.000000016,1476.923076923077,2025-03-25 11:48:35.241776
0,3784906,2035,2061,1211,-4504500.000000016,1374.3589743589744,2025-03-25 11:48:35.241819
0,3785162,2036,2061,1211,-1501500.0000000054,1277.6556776556777,2025-03-25 11:48:35.241837
0,3785418,2036,2059,1209,-4504500.000000016,1341.3919413919414,2025-03-25 11:48:35.249792
0,3785674,2036,2059,1212,-1501500.0000000054,1476.1904761904761,2025-03-25 11:48:35.262791
0,3785930,2037,2061,1212,-4504500.000000016,1461.5384615384614,2025-03-25 11:48:35.262822
0,3786186,2035,2061,1215,-4504500.000000016,1342.8571428571427,2025-03-25 11:48:35.278796
0,3786442,2036,2060,1212,-4504500.000000016,1306.227106227106,2025-03-25 11:48:35.286759
0,3786698,2036,2058,1208,-1501500.0000000054,1442.4908424908424,2025-03-25 11:48:35.291777
0,3786954,2034,2061,1212,-1501500.0000000054,1526.007326007326,2025-03-25 11:48:35.303785
0,3787210,2035,2059,1213,-4504500.000000016,1443.2234432234432,2025-03-25 11:48:35.303818
0,3787466,2034,2061,1215,-1501500.0000000054,1327.4725274725274,2025-03-25 11:48:35.311764
0,3787722,2035,2060,1212,-1501500.0000000054,1350.9157509157508,2025-03-25 11:48:35.326779
0,3787978,2035,2063,1210,-1501500.0000000054,1495.970695970696,2025-03-25 11:48:35.333789
0,3788234,2035,2060,1210,-4504500.000000016,1485.7142857142856,2025-03-25 11:48:35.338816
0,3788490,2035,2059,1210,-1501500.0000000054,1363.3699633699632,2025-03-25 11:48:35.338847
0,3788746,2034,2060,1212,-1501500.0000000054,1303.2967032967033,2025-03-25 11:48:35.354763
0,3789002,2036,2058,1214,-1501500.0000000054,1402.197802197802,2025-03-25 11:48:35.356810
0,3789258,2035,2062,1215,-4504500.000000016,1499.6336996336995,2025-03-25 11:48:35.371779
0,3789514,2036,2059,1212,-4504500.000000016,1412.4542124542124,2025-03-25 11:48:35.378773
0,3789770,2036,2059,1211,-1501500.0000000054,1285.7142857142856,2025-03-25 11:48:35.386836
0,3790026,2035,2059,1211,-1501500.0000000054,1293.7728937728937,2025-03-25 11:48:35.386867
0,3790282,2035,2059,1213,-1501500.0000000054,1428.5714285714284,2025-03-25 11:48:35.411792
0,3790538,2037,2060,1212,-1501500.0000000054,1455.6776556776556,2025-03-25 11:48:35.411823
0,3790794,2038,2062,1213,-1501500.0000000054,1344.3223443223442,2025-03-25 11:48:35.413703
0,3791050,2036,2059,1213,-1501500.0000000054,1274.7252747252746,2025-03-25 11:48:35.413735
0,3791306,2036,2061,1210,-4504500.000000016,1379.4871794871794,2025-03-25 11:48:35.428795
0,3791562,2037,2060,1211,-1501500.0000000054,1495.970695970696,2025-03-25 11:48:35.443773
0,3791818,2036,2058,1213,-1501500.0000000054,1447.6190476190475,2025-03-25 11:48:35.443806
0,3792074,2034,2060,1214,-1501500.0000000054,1328.937728937729,2025-03-25 11:48:35.451784
0,3792330,2036,2060,1213,-4504500.000000016,1321.6117216117216,2025-03-25 11:48:35.451817
0,3792586,2035,2060,1211,-4504500.000000016,1465.9340659340658,2025-03-25 11:48:35.468775
0,3792842,2034,2057,1210,-4504500.000000016,1501.098901098901,2025-03-25 11:48:35.484873
0,3793098,2038,2060,1211,-4504500.000000016,1396.3369963369962,2025-03-25 11:48:35.486763
0,3793354,2038,2059,1214,-4504500.000000016,1304.0293040293038,2025-03-25 11:48:35.491553
0,3793610,2035,2061,1214,-4504500.000000016,1365.5677655677655,2025-03-25 11:48:35.496737
0,3793866,2034,2060,1214,-1501500.0000000054,1495.2380952380952,2025-03-25 11:48:35.512812
0,3794122,2036,2060,1211,-4504500.000000016,1450.5494505494505,2025-03-25 11:48:35.512845
0,3794378,2037,2061,1210,-4504500.000000016,1331.8681318681317,2025-03-25 11:48:35.512876
0,3794634,2035,2058,1211,-1501500.0000000054,1311.3553113553112,2025-03-25 11:48:35.528474
0,3794890,2036,2060,1214,-1501500.0000000054,1433.6996336996335,2025-03-25 11:48:35.544786
0,3795146,2036,2060,1215,-1501500.0000000054,1491.5750915750914,2025-03-25 11:48:35.548718
0,3795402,2036,2062,1211,-4504500.000000016,1382.4175824175823,2025-03-25 11:48:35.548751
0,3795658,2036,2062,1209,-1501500.0000000054,1269.5970695970695,2025-03-25 11:48:35.562729
0,3795914,2036,2058,1208,-1501500.0000000054,1316.4835164835165,2025-03-25 11:48:35.572603
0,3796170,2037,2062,1214,-4504500.000000016,1440.2930402930401,2025-03-25 11:48:35.581809
0,3796426,2036,2059,1215,-4504500.000000016,1419.047619047619,2025-03-25 11:48:35.581852
0,3796682,2036,2060,1213,-4504500.000000016,1295.970695970696,2025-03-25 11:48:35.597771
0,3796938,2037,2060,1210,-4504500.000000016,1257.8754578754579,2025-03-25 11:48:35.612795
0,3797194,2036,2058,1209,-4504500.000000016,1393.4065934065934,2025-03-25 11:48:35.619823
0,3797450,2036,2060,1210,-4504500.000000016,1479.120879120879,2025-03-25 11:48:35.627783
0,3797706,2037,2060,1211,-4504500.000000016,1405.128205128205,2025-03-25 11:48:35.627819
0,3797962,2035,2060,1211,-4504500.000000016,1295.970695970696,2025-03-25 11:48:35.634832
0,3798218,2037,2058,1211,-1501500.0000000054,1323.076923076923,2025-03-25 11:48:35.636731
0,3798474,2037,2059,1211,-1501500.0000000054,1465.9340659340658,2025-03-25 11:48:35.653736
0,3798730,2034,2059,1211,-1501500.0000000054,1453.4798534798533,2025-03-25 11:48:35.653773
0,3798986,2034,2059,1210,-4504500.000000016,1328.2051282051282,2025-03-25 11:48:35.670799
0,3799242,2035,2058,1212,-1501500.0000000054,1263.7362637362637,2025-03-25 11:48:35.670836
0,3799498,2036,2060,1213,-4504500.000000016,1364.102564102564,2025-03-25 11:48:35.677804
0,3799754,2035,2060,1212,-4504500.000000016,1473.260073260073,2025-03-25 11:48:35.692808
0,3800010,2034,2059,1212,-4504500.000000016,1401.4652014652013,2025-03-25 11:48:35.697769
0,3800266,2035,2059,1209,-4504500.000000016,1288.6446886446886,2025-03-25 11:48:35.707785
0,3800522,2035,2060,1211,-1501500.0000000054,1312.8205128205127,2025-03-25 11:48:35.707823
0,3800778,2035,2060,1214,-1501500.0000000054,1460.07326007326,2025-03-25 11:48:35.723823
0,3801034,2036,2060,1214,-1501500.0000000054,1490.8424908424906,2025-03-25 11:48:35.723858
0,3801290,2037,2060,1212,-1501500.0000000054,1376.5567765567764,2025-03-25 11:48:35.723876
0,3801546,2036,2059,1211,-4504500.000000016,1306.227106227106,2025-03-25 11:48:35.739795
0,3801802,2035,2061,1213,-4504500.000000016,1406.5934065934066,2025-03-25 11:48:35.748807
0,3802058,2035,2060,1213,-1501500.0000000054,1520.8791208791208,2025-03-25 11:48:35.771819
0,3802314,2037,2060,1212,-1501500.0000000054,1471.062271062271,2025-03-25 11:48:35.771854
0,3802570,2035,2059,1214,-1501500.0000000054,1348.7179487179487,2025-03-25 11:48:35.773719
0,3802826,2035,2059,1212,-1501500.0000000054,1337.7289377289376,2025-03-25 11:48:35.773753
0,3803082,2037,2060,1213,-4504500.000000016,1481.3186813186812,2025-03-25 11:48:35.789866
0,3803338,2036,2059,1212,-4504500.000000016,1509.89010989011,2025-03-25 11:48:35.797763
0,3803594,2038,2062,1214,-4504500.000000016,1396.3369963369962,2025-03-25 11:48:35.797798
0,3803850,2036,2060,1214,-1501500.0000000054,1299.6336996336995,2025-03-25 11:48:35.818798
0,3804106,2037,2059,1215,-1501500.0000000054,1358.974358974359,2025-03-25 11:48:35.821740
0,3804362,2035,2061,1211,-1501500.0000000054,1484.9816849816848,2025-03-25 11:48:35.831611
0,3804618,2037,2059,1211,-1501500.0000000054,1435.8974358974358,2025-03-25 11:48:35.843761
0,3804874,2036,2060,1212,-4504500.000000016,1309.89010989011,2025-03-25 11:48:35.843795
0,3805130,2037,2058,1213,-4504500.000000016,1284.2490842490843,2025-03-25 11:48:35.846719
0,3805386,2036,2058,1214,-1501500.0000000054,1410.989010989011,2025-03-25 11:48:35.856799
0,3805642,2037,2060,1214,-1501500.0000000054,1483.5164835164835,2025-03-25 11:48:35.876718
0,3805898,2036,2061,1210,-4504500.000000016,1389.0109890109889,2025-03-25 11:48:35.878746
0,3806154,2036,2060,1211,-1501500.0000000054,1295.2380952380952,2025-03-25 11:48:35.891794
0,3806410,2035,2060,1211,-1501500.0000000054,1355.3113553113553,2025-03-25 11:48:35.891831
0,3806666,2036,2061,1213,-1501500.0000000054,1489.3772893772893,2025-03-25 11:48:35.893807
0,3806922,2035,2060,1215,-4504500.000000016,1473.9926739926739,2025-03-25 11:48:35.916882
0,3807178,2036,2061,1210,-1501500.0000000054,1347.2527472527472,2025-03-25 11:48:35.919753
0,3807434,2035,2059,1211,-1501500.0000000054,1297.4358974358975,2025-03-25 11:48:35.919789
0,3807690,2035,2060,1211,-1501500.0000000054,1421.9780219780218,2025-03-25 11:48:35.947772
0,3807946,2035,2059,1212,-4504500.000000016,1496.7032967032967,2025-03-25 11:48:35.947819
0,3808202,2035,2062,1214,-1501500.0000000054,1413.9194139194137,2025-03-25 11:48:35.947837
0,3808458,2036,2059,1214,-1501500.0000000054,1300.3663003663003,2025-03-25 11:48:35.963812
0,3808714,2036,2061,1214,-1501500.0000000054,1327.4725274725274,2025-03-25 11:48:35.963848
0,3808970,2035,2061,1211,-1501500.0000000054,1473.9926739926739,2025-03-25 11:48:35.963865
0,3809226,2036,2061,1213,-1501500.0000000054,1465.201465201465,2025-03-25 11:48:35.979779
0,3809482,2036,2061,1213,-1501500.0000000054,1343.5897435897434,2025-03-25 11:48:35.979815
0,3809738,2035,2061,1212,-4504500.000000016,1284.9816849816848,2025-03-25 11:48:35.987891
0,3809994,2035,2059,1214,-1501500.0000000054,1384.6153846153845,2025-03-25 11:48:36.003788
0,3810250,2036,2059,1213,-1501500.0000000054,1488.6446886446886,2025-03-25 11:48:36.011844
0,3810506,2035,2059,1214,-1501500.0000000054,1410.989010989011,2025-03-25 11:48:36.018829
0,3810762,2037,2059,1211,-4504500.000000016,1295.970695970696,2025-03-25 11:48:36.018878
0,3811018,2035,2059,1213,-1501500.0000000054,1315.7509157509157,2025-03-25 11:48:36.033833
0,3811274,2036,2061,1209,-1501500.0000000054,1459.3406593406592,2025-03-25 11:48:36.040797
0,3811530,2036,2059,1213,-1501500.0000000054,1490.8424908424906,2025-03-25 11:48:36.056780
0,3811786,2037,2060,1211,-4504500.000000016,1375.8241758241757,2025-03-25 11:48:36.056815
0,3812042,2037,2057,1214,-1501500.0000000054,1296.7032967032967,2025-03-25 11:48:36.063799
0,3812298,2036,2060,1210,-1501500.0000000054,1389.0109890109889,2025-03-25 11:48:36.063835
0,3812554,2034,2059,1212,-4504500.000000016,1500.3663003663003,2025-03-25 11:48:36.084783
0,3812810,2035,2056,1212,-1501500.0000000054,1452.014652014652,2025-03-25 11:48:36.086798
0,3813066,2036,2060,1211,-1501500.0000000054,1329.6703296703297,2025-03-25 11:48:36.086834
0,3813322,2035,2059,1210,-1501500.0000000054,1318.6813186813185,2025-03-25 11:48:36.099812
0,3813578,2038,2060,1211,-1501500.0000000054,1463.003663003663,2025-03-25 11:48:36.107823
0,3813834,2035,2059,1212,-4504500.000000016,1494.5054945054944,2025-03-25 11:48:36.116885
0,3814090,2036,2057,1212,-1501500.0000000054,1389.7435897435896,2025-03-25 11:48:36.130770
0,3814346,2035,2058,1212,-1501500.0000000054,1299.6336996336995,2025-03-25 11:48:36.130805
0,3814602,2038,2060,1212,-1501500.0000000054,1360.4395604395604,2025-03-25 11:48:36.143724
0,3814858,2035,2061,1211,-1501500.0000000054,1491.5750915750914,2025-03-25 11:48:36.154801
0,3815114,2035,2059,1212,-4504500.000000016,1453.4798534798533,2025-03-25 11:48:36.168802
0,3815370,2037,2058,1210,-1501500.0000000054,1330.4029304029302,2025-03-25 11:48:36.168837
0,3815626,2036,2062,1213,-1501500.0000000054,1308.4249084249084,2025-03-25 11:48:36.168855
0,3815882,2033,2059,1212,-1501500.0000000054,1439.5604395604394,2025-03-25 11:48:36.191765
0,3816138,2035,2059,1214,-1501500.0000000054,1506.227106227106,2025-03-25 11:48:36.198852
0,3816394,2036,2059,1214,-1501500.0000000054,1400.7326007326005,2025-03-25 11:48:36.198887
0,3816650,2035,2060,1212,-4504500.000000016,1291.5750915750914,2025-03-25 11:48:36.208799
0,3816906,2036,2059,1213,-4504500.000000016,1338.4615384615383,2025-03-25 11:48:36.208838
0,3817162,2037,2061,1212,-4504500.000000016,1463.7362637362637,2025-03-25 11:48:36.228673
0,3817418,2035,2060,1210,-4504500.000000016,1448.3516483516482,2025-03-25 11:48:36.228710
0,3817674,2036,2059,1207,-1501500.0000000054,1323.8095238095236,2025-03-25 11:48:36.228728
0,3817930,2035,2059,1208,-1501500.0000000054,1277.6556776556777,2025-03-25 11:48:36.246792
0,3818186,2035,2058,1210,-1501500.0000000054,1402.197802197802,2025-03-25 11:48:36.246883
0,3818442,2035,2060,1213,-1501500.0000000054,1481.3186813186812,2025-03-25 11:48:36.263759
0,3818698,2034,2060,1212,-1501500.0000000054,1402.197802197802,2025-03-25 11:48:36.263793
0,3818954,2038,2058,1210,-4504500.000000016,1295.970695970696,2025-03-25 11:48:36.263811
0,3819210,2036,2058,1213,-1501500.0000000054,1327.4725274725274,2025-03-25 11:48:36.279719
0,3819466,2036,2060,1211,-1501500.0000000054,1477.6556776556777,2025-03-25 11:48:36.287728
0,3819722,2034,2059,1214,-4504500.000000016,1473.9926739926739,2025-03-25 11:48:36.303761
0,3819978,2037,2060,1213,-4504500.000000016,1352.3809523809523,2025-03-25 11:48:36.303797
0,3820234,2035,2062,1212,-4504500.000000016,1284.9816849816848,2025-03-25 11:48:36.303814
0,3820490,2033,2057,1214,-4504500.000000016,1378.7545787545787,2025-03-25 11:48:36.319790
0,3820746,2035,2061,1211,-4504500.000000016,1481.3186813186812,2025-03-25 11:48:36.327762
0,3821002,2035,2061,1214,-4504500.000000016,1405.128205128205,2025-03-25 11:48:36.327796
0,3821258,2034,2058,1213,-1501500.0000000054,1282.7838827838827,2025-03-25 11:48:36.342687
0,3821514,2034,2059,1213,-1501500.0000000054,1292.3076923076922,2025-03-25 11:48:36.349883
0,3821770,2036,2059,1211,-4504500.000000016,1427.8388278388277,2025-03-25 11:48:36.364680
0,3822026,2035,2062,1212,-4504500.000000016,1457.142857142857,2025-03-25 11:48:36.372861
0,3822282,2037,2060,1212,-1501500.0000000054,1348.7179487179487,2025-03-25 11:48:36.372896
0,3822538,2037,2059,1214,-4504500.000000016,1281.3186813186812,2025-03-25 11:48:36.388751
0,3822794,2037,2059,1214,-1501500.0000000054,1379.4871794871794,2025-03-25 11:48:36.388787
0,3823050,2036,2059,1211,-4504500.000000016,1498.168498168498,2025-03-25 11:48:36.393776
0,3823306,2036,2059,1212,-1501500.0000000054,1455.6776556776556,2025-03-25 11:48:36.409803
0,3823562,2035,2058,1210,-1501500.0000000054,1336.9963369963368,2025-03-25 11:48:36.417860
0,3823818,2035,2058,1210,-1501500.0000000054,1324.5421245421244,2025-03-25 11:48:36.417897
0,3824074,2035,2058,1214,-4504500.000000016,1469.5970695970695,2025-03-25 11:48:36.424962
0,3824330,2037,2060,1213,-1501500.0000000054,1506.227106227106,2025-03-25 11:48:36.439821
0,3824586,2034,2060,1213,-1501500.0000000054,1394.139194139194,2025-03-25 11:48:36.446954
0,3824842,2036,2060,1209,-1501500.0000000054,1297.4358974358975,2025-03-25 11:48:36.463569
0,3825098,2035,2060,1209,-1501500.0000000054,1361.1721611721612,2025-03-25 11:48:36.463607
0,3825354,2037,2059,1212,-1501500.0000000054,1495.970695970696,2025-03-25 11:48:36.463626
0,3825610,2037,2059,1214,-1501500.0000000054,1451.2820512820513,2025-03-25 11:48:36.479782
0,3825866,2036,2060,1214,-4504500.000000016,1319.4139194139193,2025-03-25 11:48:36.487786
0,3826122,2036,2060,1211,-1501500.0000000054,1284.9816849816848,2025-03-25 11:48:36.487820
0,3826378,2036,2060,1213,-4504500.000000016,1402.9304029304028,2025-03-25 11:48:36.504744
0,3826634,2035,2061,1215,-1501500.0000000054,1476.1904761904761,2025-03-25 11:48:36.506715
0,3826890,2035,2057,1213,-1501500.0000000054,1380.2197802197802,2025-03-25 11:48:36.522760
0,3827146,2035,2061,1214,-1501500.0000000054,1283.5164835164835,2025-03-25 11:48:36.522805
0,3827402,2035,2058,1212,-1501500.0000000054,1343.5897435897434,2025-03-25 11:48:36.528781
0,3827658,2036,2059,1211,-4504500.000000016,1484.2490842490843,2025-03-25 11:48:36.546777
0,3827914,2036,2060,1208,-4504500.000000016,1480.5860805860805,2025-03-25 11:48:36.561927
0,3828170,2035,2058,1212,-1501500.0000000054,1362.6373626373625,2025-03-25 11:48:36.561959
0,3828426,2036,2058,1214,-1501500.0000000054,1317.9487179487178,2025-03-25 11:48:36.567823
0,3828682,2036,2059,1215,-1501500.0000000054,1443.2234432234432,2025-03-25 11:48:36.573892
0,3828938,2034,2060,1212,-1501500.0000000054,1526.7399267399267,2025-03-25 11:48:36.598813
0,3829194,2036,2062,1210,-4504500.000000016,1447.6190476190475,2025-03-25 11:48:36.598846
0,3829450,2036,2059,1210,-1501500.0000000054,1332.6007326007325,2025-03-25 11:48:36.598863
0,3829706,2035,2060,1213,-4504500.000000016,1356.0439560439559,2025-03-25 11:48:36.601833
0,3829962,2037,2060,1212,-1501500.0000000054,1502.5641025641025,2025-03-25 11:48:36.617847
0,3830218,2035,2061,1218,-4504500.000000016,1495.2380952380952,2025-03-25 11:48:36.617884
0,3830474,2036,2059,1211,-4504500.000000016,1366.3003663003662,2025-03-25 11:48:36.617901
0,3830730,2036,2062,1210,-4504500.000000016,1297.4358974358975,2025-03-25 11:48:36.635742
0,3830986,2033,2058,1211,-1501500.0000000054,1393.4065934065934,2025-03-25 11:48:36.635845
0,3831242,2035,2059,1213,-4504500.000000016,1505.4945054945053,2025-03-25 11:48:36.651875
0,3831498,2035,2056,1212,-4504500.000000016,1439.5604395604394,2025-03-25 11:48:36.668832
0,3831754,2036,2062,1213,-1501500.0000000054,1328.937728937729,2025-03-25 11:48:36.668864
0,3832010,2038,2060,1209,-4504500.000000016,1347.985347985348,2025-03-25 11:48:36.668880
0,3832266,2035,2062,1211,-1501500.0000000054,1492.3076923076922,2025-03-25 11:48:36.687810
0,3832522,2035,2059,1209,-4504500.000000016,1526.7399267399267,2025-03-25 11:48:36.687848
0,3832778,2035,2060,1213,-1501500.0000000054,1408.7912087912086,2025-03-25 11:48:36.687866
0,3833034,2036,2058,1213,-1501500.0000000054,1323.8095238095236,2025-03-25 11:48:36.701775
0,3833290,2037,2059,1212,-1501500.0000000054,1409.5238095238094,2025-03-25 11:48:36.704803
0,3833546,2035,2059,1210,-4504500.000000016,1519.4139194139193,2025-03-25 11:48:36.717774
0,3833802,2034,2060,1212,-1501500.0000000054,1469.5970695970695,2025-03-25 11:48:36.731819
0,3834058,2035,2060,1211,-1501500.0000000054,1341.3919413919414,2025-03-25 11:48:36.731856
0,3834314,2035,2060,1213,-1501500.0000000054,1321.6117216117216,2025-03-25 11:48:36.737812
0,3834570,2037,2059,1213,-1501500.0000000054,1457.142857142857,2025-03-25 11:48:36.747893
0,3834826,2037,2061,1212,-1501500.0000000054,1486.4468864468863,2025-03-25 11:48:36.756789
0,3835082,2036,2060,1212,-1501500.0000000054,1369.9633699633698,2025-03-25 11:48:36.777902
0,3835338,2035,2061,1212,-4504500.000000016,1263.003663003663,2025-03-25 11:48:36.777935
0,3835594,2036,2061,1212,-1501500.0000000054,1315.018315018315,2025-03-25 11:48:36.779549
0,3835850,2035,2059,1211,-1501500.0000000054,1451.2820512820513,2025-03-25 11:48:36.791758
0,3836106,2036,2059,1210,-1501500.0000000054,1419.7802197802198,2025-03-25 11:48:36.799726
0,3836362,2036,2060,1213,-1501500.0000000054,1306.9597069597069,2025-03-25 11:48:36.799761
0,3836618,2036,2060,1210,-1501500.0000000054,1284.9816849816848,2025-03-25 11:48:36.816700
0,3836874,2035,2059,1211,-1501500.0000000054,1413.1868131868132,2025-03-25 11:48:36.816734
0,3837130,2036,2059,1212,-1501500.0000000054,1496.7032967032967,2025-03-25 11:48:36.833834
0,3837386,2035,2059,1214,-1501500.0000000054,1408.7912087912086,2025-03-25 11:48:36.833868
0,3837642,2035,2061,1213,-1501500.0000000054,1307.6923076923076,2025-03-25 11:48:36.833885
0,3837898,2035,2057,1211,-4504500.000000016,1356.7765567765566,2025-03-25 11:48:36.848783
0,3838154,2035,2060,1213,-4504500.000000016,1488.6446886446886,2025-03-25 11:48:36.857850
0,3838410,2036,2060,1212,-4504500.000000016,1477.6556776556777,2025-03-25 11:48:36.876670
0,3838666,2036,2059,1210,-4504500.000000016,1351.6483516483515,2025-03-25 11:48:36.876705
0,3838922,2034,2060,1209,-1501500.0000000054,1298.9010989010987,2025-03-25 11:48:36.876724
0,3839178,2035,2058,1211,-1501500.0000000054,1421.245421245421,2025-03-25 11:48:36.893638
0,3839434,2035,2060,1212,-1501500.0000000054,1505.4945054945053,2025-03-25 11:48:36.893676
0,3839690,2037,2059,1210,-1501500.0000000054,1426.3736263736262,2025-03-25 11:48:36.909764
0,3839946,2038,2060,1211,-1501500.0000000054,1309.1575091575091,2025-03-25 11:48:36.917672
0,3840202,2035,2058,1210,-1501500.0000000054,1323.076923076923,2025-03-25 11:48:36.917713
0,3840458,2036,2059,1210,-1501500.0000000054,1467.3992673992673,2025-03-25 11:48:36.932655
0,3840714,2037,2060,1213,-1501500.0000000054,1462.2710622710622,2025-03-25 11:48:36.939681
0,3840970,2035,2061,1212,-1501500.0000000054,1339.194139194139,2025-03-25 11:48:36.946750
0,3841226,2036,2061,1210,-1501500.0000000054,1268.131868131868,2025-03-25 11:48:36.953876
0,3841482,2034,2060,1210,-1501500.0000000054,1357.5091575091574,2025-03-25 11:48:36.953911
0,3841738,2037,2060,1209,-1501500.0000000054,1468.131868131868,2025-03-25 11:48:36.968827
0,3841994,2037,2059,1214,-1501500.0000000054,1400.7326007326005,2025-03-25 11:48:36.983781
0,3842250,2037,2061,1213,-4504500.000000016,1285.7142857142856,2025-03-25 11:48:36.983816
0,3842506,2036,2063,1213,-1501500.0000000054,1295.970695970696,2025-03-25 11:48:36.992878
0,3842762,2035,2059,1211,-1501500.0000000054,1429.3040293040292,2025-03-25 11:48:37.006939
0,3843018,2035,2060,1211,-4504500.000000016,1458.6080586080584,2025-03-25 11:48:37.020887
0,3843274,2036,2059,1210,-1501500.0000000054,1336.9963369963368,2025-03-25 11:48:37.020936
0,3843530,2034,2060,1212,-1501500.0000000054,1249.084249084249,2025-03-25 11:48:37.039753
0,3843786,2036,2059,1214,-1501500.0000000054,1334.065934065934,2025-03-25 11:48:37.041974
0,3844042,2036,2060,1212,-4504500.000000016,1451.2820512820513,2025-03-25 11:48:37.050792
0,3844298,2036,2059,1214,-1501500.0000000054,1405.8608058608058,2025-03-25 11:48:37.050827
0,3844554,2034,2060,1211,-4504500.000000016,1279.120879120879,2025-03-25 11:48:37.050844
0,3844810,2036,2059,1212,-1501500.0000000054,1260.8058608058607,2025-03-25 11:48:37.061771
0,3845066,2035,2059,1212,-1501500.0000000054,1408.058608058608,2025-03-25 11:48:37.068717
0,3845322,2035,2059,1214,-1501500.0000000054,1466.6666666666665,2025-03-25 11:48:37.076700
0,3845578,2034,2060,1212,-1501500.0000000054,1380.952380952381,2025-03-25 11:48:37.092710
0,3845834,2035,2060,1209,-1501500.0000000054,1294.5054945054944,2025-03-25 11:48:37.092744
0,3846090,2035,2060,1212,-4504500.000000016,1358.2417582417581,2025-03-25 11:48:37.092762
0,3846346,2038,2061,1211,-1501500.0000000054,1501.8315018315018,2025-03-25 11:48:37.109786
0,3846602,2036,2059,1213,-4504500.000000016,1472.5274725274724,2025-03-25 11:48:37.126794
0,3846858,2034,2059,1214,-4504500.000000016,1354.5787545787546,2025-03-25 11:48:37.126828
0,3847114,2036,2057,1212,-1501500.0000000054,1325.2747252747251,2025-03-25 11:48:37.126846
0,3847370,2035,2059,1211,-1501500.0000000054,1449.084249084249,2025-03-25 11:48:37.143828
0,3847626,2036,2061,1212,-4504500.000000016,1526.007326007326,2025-03-25 11:48:37.145973
0,3847882,2036,2060,1213,-4504500.000000016,1427.8388278388277,2025-03-25 11:48:37.162830
0,3848138,2037,2060,1212,-1501500.0000000054,1321.6117216117216,2025-03-25 11:48:37.162864
0,3848394,2035,2060,1211,-1501500.0000000054,1369.9633699633698,2025-03-25 11:48:37.162882
0,3848650,2035,2060,1211,-4504500.000000016,1510.6227106227104,2025-03-25 11:48:37.179941
0,3848906,2036,2060,1211,-1501500.0000000054,1509.1575091575091,2025-03-25 11:48:37.196933
0,3849162,2036,2060,1212,-4504500.000000016,1386.080586080586,2025-03-25 11:48:37.196967
0,3849418,2033,2061,1212,-1501500.0000000054,1327.4725274725274,2025-03-25 11:48:37.213750
0,3849674,2036,2062,1216,-4504500.000000016,1435.164835164835,2025-03-25 11:48:37.213785
0,3849930,2035,2060,1213,-1501500.0000000054,1509.1575091575091,2025-03-25 11:48:37.231740
0,3850186,2034,2059,1210,-1501500.0000000054,1425.6410256410256,2025-03-25 11:48:37.231792
0,3850442,2034,2057,1212,-1501500.0000000054,1302.5641025641025,2025-03-25 11:48:37.231814
0,3850698,2032,2060,1211,-1501500.0000000054,1314.2857142857142,2025-03-25 11:48:37.246757
0,3850954,2035,2061,1213,-4504500.000000016,1460.8058608058607,2025-03-25 11:48:37.246793
0,3851210,2033,2058,1215,-1501500.0000000054,1467.3992673992673,2025-03-25 11:48:37.263743
0,3851466,2035,2059,1212,-1501500.0000000054,1355.3113553113553,2025-03-25 11:48:37.263777
0,3851722,2036,2060,1209,-1501500.0000000054,1293.040293040293,2025-03-25 11:48:37.263794
0,3851978,2035,2059,1208,-4504500.000000016,1387.5457875457876,2025-03-25 11:48:37.284733
0,3852234,2036,2058,1209,-1501500.0000000054,1504.0293040293038,2025-03-25 11:48:37.286781
0,3852490,2035,2059,1214,-1501500.0000000054,1435.164835164835,2025-03-25 11:48:37.303792
0,3852746,2034,2058,1211,-4504500.000000016,1313.5531135531135,2025-03-25 11:48:37.303827
0,3853002,2036,2060,1211,-1501500.0000000054,1313.5531135531135,2025-03-25 11:48:37.306742
0,3853258,2036,2060,1210,-4504500.000000016,1445.4212454212454,2025-03-25 11:48:37.326762
0,3853514,2036,2059,1212,-1501500.0000000054,1478.3882783882782,2025-03-25 11:48:37.328878
0,3853770,2035,2060,1216,-1501500.0000000054,1358.974358974359,2025-03-25 11:48:37.346773
0,3854026,2037,2060,1214,-4504500.000000016,1266.6666666666665,2025-03-25 11:48:37.348759
0,3854282,2037,2061,1210,-1501500.0000000054,1352.3809523809523,2025-03-25 11:48:37.348808
0,3854538,2034,2059,1211,-1501500.0000000054,1482.051282051282,2025-03-25 11:48:37.359801
0,3854794,2034,2062,1211,-1501500.0000000054,1452.014652014652,2025-03-25 11:48:37.377747
0,3855050,2035,2060,1213,-1501500.0000000054,1339.194139194139,2025-03-25 11:48:37.377782
0,3855306,2034,2059,1210,-4504500.000000016,1327.4725274725274,2025-03-25 11:48:37.379838
0,3855562,2033,2058,1213,-1501500.0000000054,1471.7948717948716,2025-03-25 11:48:37.387783
0,3855818,2035,2058,1213,-1501500.0000000054,1521.6117216117216,2025-03-25 11:48:37.394790
0,3856074,2036,2059,1211,-4504500.000000016,1424.9084249084249,2025-03-25 11:48:37.411736
0,3856330,2036,2058,1209,-1501500.0000000054,1326.007326007326,2025-03-25 11:48:37.417708
0,3856586,2034,2057,1212,-4504500.000000016,1375.091575091575,2025-03-25 11:48:37.417758
0,3856842,2035,2061,1212,-4504500.000000016,1509.1575091575091,2025-03-25 11:48:37.424781
0,3857098,2037,2060,1214,-1501500.0000000054,1472.5274725274724,2025-03-25 11:48:37.441826
0,3857354,2036,2060,1212,-1501500.0000000054,1343.5897435897434,2025-03-25 11:48:37.441860
0,3857610,2035,2061,1211,-1501500.0000000054,1300.3663003663003,2025-03-25 11:48:37.459804
0,3857866,2034,2061,1210,-1501500.0000000054,1415.3846153846152,2025-03-25 11:48:37.459837
0,3858122,2036,2062,1211,-1501500.0000000054,1494.5054945054944,2025-03-25 11:48:37.476728
0,3858378,2035,2063,1215,-4504500.000000016,1403.6630036630036,2025-03-25 11:48:37.476761
0,3858634,2033,2060,1213,-4504500.000000016,1293.7728937728937,2025-03-25 11:48:37.476778
0,3858890,2035,2061,1210,-4504500.000000016,1332.6007326007325,2025-03-25 11:48:37.493799
0,3859146,2035,2061,1210,-1501500.0000000054,1466.6666666666665,2025-03-25 11:48:37.499789
0,3859402,2037,2060,1210,-1501500.0000000054,1464.4688644688645,2025-03-25 11:48:37.516766
0,3859658,2039,2062,1213,-1501500.0000000054,1341.3919413919414,2025-03-25 11:48:37.516812
0,3859914,2036,2061,1213,-1501500.0000000054,1280.5860805860805,2025-03-25 11:48:37.533795
0,3860170,2035,2060,1213,-1501500.0000000054,1392.6739926739926,2025-03-25 11:48:37.533830
0,3860426,2035,2060,1211,-1501500.0000000054,1483.5164835164835,2025-03-25 11:48:37.549809
0,3860682,2036,2059,1211,-1501500.0000000054,1416.117216117216,2025-03-25 11:48:37.551805
0,3860938,2035,2060,1211,-1501500.0000000054,1303.2967032967033,2025-03-25 11:48:37.551840
0,3861194,2036,2061,1211,-1501500.0000000054,1315.7509157509157,2025-03-25 11:48:37.567660
0,3861450,2035,2061,1212,-1501500.0000000054,1457.8754578754579,2025-03-25 11:48:37.567693
0,3861706,2035,2060,1214,-1501500.0000000054,1464.4688644688645,2025-03-25 11:48:37.584802
0,3861962,2034,2060,1212,-1501500.0000000054,1349.4505494505493,2025-03-25 11:48:37.584837
0,3862218,2037,2060,1212,-1501500.0000000054,1279.120879120879,2025-03-25 11:48:37.586804
0,3862474,2036,2060,1216,-4504500.000000016,1366.3003663003662,2025-03-25 11:48:37.603748
0,3862730,2035,2061,1212,-1501500.0000000054,1478.3882783882782,2025-03-25 11:48:37.603781
0,3862986,2035,2060,1215,-4504500.000000016,1407.3260073260071,2025-03-25 11:48:37.620756
0,3863242,2035,2061,1211,-1501500.0000000054,1279.120879120879,2025-03-25 11:48:37.623826
0,3863498,2037,2059,1211,-1501500.0000000054,1279.8534798534797,2025-03-25 11:48:37.623861
0,3863754,2036,2058,1213,-1501500.0000000054,1421.245421245421,2025-03-25 11:48:37.636847
0,3864010,2035,2059,1214,-4504500.000000016,1474.7252747252746,2025-03-25 11:48:37.648887
0,3864266,2037,2058,1215,-4504500.000000016,1374.3589743589744,2025-03-25 11:48:37.671771
0,3864522,2036,2060,1213,-4504500.000000016,1295.2380952380952,2025-03-25 11:48:37.671804
0,3864778,2037,2061,1212,-4504500.000000016,1381.6849816849815,2025-03-25 11:48:37.673789
0,3865034,2036,2060,1211,-4504500.000000016,1514.2857142857142,2025-03-25 11:48:37.690817
0,3865290,2036,2061,1212,-4504500.000000016,1485.7142857142856,2025-03-25 11:48:37.690853
0,3865546,2034,2061,1213,-4504500.000000016,1361.904761904762,2025-03-25 11:48:37.690871
0,3865802,2036,2061,1212,-1501500.0000000054,1326.007326007326,2025-03-25 11:48:37.708914
0,3866058,2034,2059,1213,-1501500.0000000054,1453.4798534798533,2025-03-25 11:48:37.708948
0,3866314,2036,2060,1211,-1501500.0000000054,1496.7032967032967,2025-03-25 11:48:37.716708
0,3866570,2036,2060,1213,-1501500.0000000054,1392.6739926739926,2025-03-25 11:48:37.733776
0,3866826,2034,2060,1211,-1501500.0000000054,1290.10989010989,2025-03-25 11:48:37.733811
0,3867082,2035,2059,1211,-1501500.0000000054,1343.5897435897434,2025-03-25 11:48:37.733830
0,3867338,2036,2061,1210,-4504500.000000016,1493.7728937728937,2025-03-25 11:48:37.752796
0,3867594,2035,2060,1213,-1501500.0000000054,1473.260073260073,2025-03-25 11:48:37.758800
0,3867850,2034,2062,1212,-1501500.0000000054,1353.113553113553,2025-03-25 11:48:37.775772
0,3868106,2033,2059,1211,-1501500.0000000054,1309.89010989011,2025-03-25 11:48:37.775808
0,3868362,2037,2061,1211,-4504500.000000016,1419.047619047619,2025-03-25 11:48:37.775826
0,3868618,2035,2059,1213,-1501500.0000000054,1499.6336996336995,2025-03-25 11:48:37.793811
0,3868874,2034,2059,1212,-1501500.0000000054,1405.8608058608058,2025-03-25 11:48:37.798783
0,3869130,2034,2058,1213,-4504500.000000016,1293.7728937728937,2025-03-25 11:48:37.798817
0,3869386,2034,2060,1210,-1501500.0000000054,1334.7985347985348,2025-03-25 11:48:37.808801
0,3869642,2035,2060,1212,-4504500.000000016,1476.923076923077,2025-03-25 11:48:37.822801
0,3869898,2037,2060,1210,-1501500.0000000054,1487.179487179487,2025-03-25 11:48:37.837753
0,3870154,2036,2060,1215,-4504500.000000016,1369.230769230769,2025-03-25 11:48:37.847701
0,3870410,2036,2061,1211,-4504500.000000016,1310.6227106227104,2025-03-25 11:48:37.847735
0,3870666,2036,2060,1211,-1501500.0000000054,1421.9780219780218,2025-03-25 11:48:37.862774
0,3870922,2035,2058,1210,-1501500.0000000054,1509.1575091575091,2025-03-25 11:48:37.869800
0,3871178,2036,2058,1211,-1501500.0000000054,1433.6996336996335,2025-03-25 11:48:37.877712
0,3871434,2036,2059,1215,-1501500.0000000054,1309.89010989011,2025-03-25 11:48:37.877747
0,3871690,2037,2060,1213,-1501500.0000000054,1313.5531135531135,2025-03-25 11:48:37.893778
0,3871946,2035,2059,1213,-1501500.0000000054,1465.201465201465,2025-03-25 11:48:37.893823
0,3872202,2035,2060,1209,-1501500.0000000054,1479.8534798534797,2025-03-25 11:48:37.896739
0,3872458,2033,2060,1210,-1501500.0000000054,1367.7655677655678,2025-03-25 11:48:37.911809
0,3872714,2035,2060,1212,-1501500.0000000054,1297.4358974358975,2025-03-25 11:48:37.911843
0,3872970,2035,2060,1214,-1501500.0000000054,1386.080586080586,2025-03-25 11:48:37.918810
0,3873226,2036,2060,1214,-4504500.000000016,1511.3553113553112,2025-03-25 11:48:37.929812
0,3873482,2036,2060,1210,-1501500.0000000054,1449.8168498168498,2025-03-25 11:48:37.946744
0,3873738,2036,2060,1209,-1501500.0000000054,1322.3443223443223,2025-03-25 11:48:37.946778
0,3873994,2035,2058,1212,-4504500.000000016,1310.6227106227104,2025-03-25 11:48:37.965737
0,3874250,2036,2057,1213,-1501500.0000000054,1443.956043956044,2025-03-25 11:48:37.965771
0,3874506,2036,2060,1214,-4504500.000000016,1494.5054945054944,2025-03-25 11:48:37.967798
0,3874762,2035,2060,1213,-1501500.0000000054,1388.278388278388,2025-03-25 11:48:37.978742
0,3875018,2034,2059,1210,-1501500.0000000054,1301.098901098901,2025-03-25 11:48:37.978776
0,3875274,2033,2057,1208,-1501500.0000000054,1377.2893772893772,2025-03-25 11:48:37.995769
0,3875530,2034,2060,1213,-1501500.0000000054,1504.7619047619046,2025-03-25 11:48:37.995802
0,3875786,2037,2063,1216,-1501500.0000000054,1473.260073260073,2025-03-25 11:48:38.012891
0,3876042,2034,2061,1214,-1501500.0000000054,1347.2527472527472,2025-03-25 11:48:38.012937
0,3876298,2034,2060,1210,-4504500.000000016,1316.4835164835165,2025-03-25 11:48:38.015775
0,3876554,2035,2059,1208,-1501500.0000000054,1447.6190476190475,2025-03-25 11:48:38.030813
0,3876810,2034,2060,1209,-1501500.0000000054,1495.970695970696,2025-03-25 11:48:38.037797
0,3877066,2035,2058,1212,-1501500.0000000054,1389.7435897435896,2025-03-25 11:48:38.053858
0,3877322,2036,2060,1216,-1501500.0000000054,1279.120879120879,2025-03-25 11:48:38.053891
0,3877578,2035,2059,1213,-1501500.0000000054,1321.6117216117216,2025-03-25 11:48:38.056685
0,3877834,2036,2059,1209,-1501500.0000000054,1467.3992673992673,2025-03-25 11:48:38.072770
0,3878090,2035,2059,1212,-1501500.0000000054,1448.3516483516482,2025-03-25 11:48:38.078682
0,3878346,2036,2059,1212,-4504500.000000016,1331.135531135531,2025-03-25 11:48:38.086756
0,3878602,2037,2060,1214,-4504500.000000016,1293.040293040293,2025-03-25 11:48:38.095782
0,3878858,2036,2060,1214,-4504500.000000016,1414.6520146520145,2025-03-25 11:48:38.095817
0,3879114,2036,2060,1211,-1501500.0000000054,1515.7509157509157,2025-03-25 11:48:38.110791
0,3879370,2035,2060,1210,-4504500.000000016,1441.0256410256409,2025-03-25 11:48:38.118701
0,3879626,2036,2061,1209,-1501500.0000000054,1341.3919413919414,2025-03-25 11:48:38.126810
0,3879882,2037,2061,1210,-1501500.0000000054,1380.952380952381,2025-03-25 11:48:38.143827
0,3880138,2035,2059,1215,-4504500.000000016,1516.4835164835163,2025-03-25 11:48:38.143862
0,3880394,2035,2062,1214,-4504500.000000016,1512.8205128205127,2025-03-25 11:48:38.145960
0,3880650,2036,2061,1211,-1501500.0000000054,1379.4871794871794,2025-03-25 11:48:38.162788
0,3880906,2033,2059,1209,-1501500.0000000054,1306.227106227106,2025-03-25 11:48:38.162821
0,3881162,2035,2060,1208,-1501500.0000000054,1404.3956043956043,2025-03-25 11:48:38.162839
0,3881418,2035,2061,1214,-4504500.000000016,1497.4358974358972,2025-03-25 11:48:38.181811
0,3881674,2036,2062,1214,-4504500.000000016,1426.3736263736262,2025-03-25 11:48:38.190877
0,3881930,2037,2063,1214,-1501500.0000000054,1300.3663003663003,2025-03-25 11:48:38.206272
0,3882186,2034,2060,1211,-1501500.0000000054,1300.3663003663003,2025-03-25 11:48:38.213677
0,3882442,2034,2060,1208,-4504500.000000016,1446.153846153846,2025-03-25 11:48:38.213708
0,3882698,2035,2059,1213,-4504500.000000016,1463.003663003663,2025-03-25 11:48:38.228764
0,3882954,2035,2061,1213,-1501500.0000000054,1352.3809523809523,2025-03-25 11:48:38.247702
0,3883210,2036,2059,1214,-4504500.000000016,1276.923076923077,2025-03-25 11:48:38.251693
0,3883466,2035,2059,1213,-4504500.000000016,1361.1721611721612,2025-03-25 11:48:38.251723
0,3883722,2037,2059,1206,-1501500.0000000054,1493.040293040293,2025-03-25 11:48:38.265813
0,3883978,2037,2060,1211,-4504500.000000016,1445.4212454212454,2025-03-25 11:48:38.271762
0,3884234,2037,2062,1211,-4504500.000000016,1333.3333333333333,2025-03-25 11:48:38.271788
0,3884490,2035,2059,1214,-1501500.0000000054,1331.135531135531,2025-03-25 11:48:38.273686
0,3884746,2036,2059,1212,-1501500.0000000054,1465.9340659340658,2025-03-25 11:48:38.275767
0,3885002,2035,2059,1211,-4504500.000000016,1520.14652014652,2025-03-25 11:48:38.290747
0,3885258,2036,2060,1211,-1501500.0000000054,1414.6520146520145,2025-03-25 11:48:38.297748
0,3885514,2034,2058,1210,-1501500.0000000054,1323.076923076923,2025-03-25 11:48:38.297772
0,3885770,2036,2061,1212,-1501500.0000000054,1394.8717948717947,2025-03-25 11:48:38.315687
0,3886026,2035,2060,1212,-1501500.0000000054,1519.4139194139193,2025-03-25 11:48:38.315727
0,3886282,2036,2060,1212,-1501500.0000000054,1479.8534798534797,2025-03-25 11:48:38.332593
0,3886538,2036,2059,1215,-1501500.0000000054,1335.5311355311355,2025-03-25 11:48:38.332626
0,3886794,2037,2061,1211,-4504500.000000016,1283.5164835164835,2025-03-25 11:48:38.332657
0,3887050,2035,2060,1209,-4504500.000000016,1407.3260073260071,2025-03-25 11:48:38.348660
0,3887306,2037,2058,1211,-1501500.0000000054,1463.7362637362637,2025-03-25 11:48:38.365687
0,3887562,2036,2060,1214,-1501500.0000000054,1370.6959706959706,2025-03-25 11:48:38.365718
0,3887818,2035,2061,1213,-4504500.000000016,1263.003663003663,2025-03-25 11:48:38.365735
0,3888074,2036,2058,1211,-1501500.0000000054,1304.7619047619046,2025-03-25 11:48:38.381696
0,3888330,2035,2057,1209,-4504500.000000016,1454.9450549450548,2025-03-25 11:48:38.385702
0,3888586,2035,2062,1212,-1501500.0000000054,1443.2234432234432,2025-03-25 11:48:38.401655
0,3888842,2036,2061,1211,-1501500.0000000054,1320.8791208791208,2025-03-25 11:48:38.408648
0,3889098,2036,2059,1215,-1501500.0000000054,1268.8644688644688,2025-03-25 11:48:38.425684
0,3889354,2038,2060,1216,-4504500.000000016,1375.8241758241757,2025-03-25 11:48:38.425717
0,3889610,2036,2060,1210,-4504500.000000016,1475.4578754578754,2025-03-25 11:48:38.432633
0,3889866,2038,2060,1210,-1501500.0000000054,1396.3369963369962,2025-03-25 11:48:38.440699
0,3890122,2033,2058,1211,-1501500.0000000054,1284.9816849816848,2025-03-25 11:48:38.440731
0,3890378,2032,2060,1213,-1501500.0000000054,1311.3553113553112,2025-03-25 11:48:38.463680
0,3890634,2034,2059,1214,-1501500.0000000054,1449.084249084249,2025-03-25 11:48:38.463717
0,3890890,2036,2058,1212,-1501500.0000000054,1465.201465201465,2025-03-25 11:48:38.463737
0,3891146,2035,2061,1210,-1501500.0000000054,1348.7179487179487,2025-03-25 11:48:38.480666
0,3891402,2035,2059,1211,-1501500.0000000054,1284.2490842490843,2025-03-25 11:48:38.487702
0,3891658,2035,2059,1213,-1501500.0000000054,1391.9413919413919,2025-03-25 11:48:38.487735
0,3891914,2035,2059,1214,-1501500.0000000054,1498.168498168498,2025-03-25 11:48:38.507698
0,3892170,2037,2060,1212,-1501500.0000000054,1440.2930402930401,2025-03-25 11:48:38.517611
0,3892426,2037,2059,1213,-1501500.0000000054,1318.6813186813185,2025-03-25 11:48:38.520685
0,3892682,2036,2061,1212,-4504500.000000016,1320.14652014652,2025-03-25 11:48:38.520718
0,3892938,2036,2060,1211,-4504500.000000016,1473.260073260073,2025-03-25 11:48:38.532621
0,3893194,2036,2058,1212,-4504500.000000016,1495.2380952380952,2025-03-25 11:48:38.536687
0,3893450,2035,2057,1214,-1501500.0000000054,1380.2197802197802,2025-03-25 11:48:38.547849
0,3893706,2034,2059,1213,-1501500.0000000054,1295.970695970696,2025-03-25 11:48:38.547892
0,3893962,2036,2061,1213,-1501500.0000000054,1370.6959706959706,2025-03-25 11:48:38.567629
0,3894218,2036,2060,1210,-1501500.0000000054,1501.8315018315018,2025-03-25 11:48:38.570599
0,3894474,2035,2061,1210,-1501500.0000000054,1453.4798534798533,2025-03-25 11:48:38.577762
0,3894730,2036,2060,1211,-1501500.0000000054,1334.065934065934,2025-03-25 11:48:38.577794
0,3894986,2036,2060,1213,-1501500.0000000054,1324.5421245421244,2025-03-25 11:48:38.593618
0,3895242,2036,2060,1213,-1501500.0000000054,1458.6080586080584,2025-03-25 11:48:38.595667
0,3895498,2035,2060,1212,-1501500.0000000054,1517.9487179487178,2025-03-25 11:48:38.610699
0,3895754,2035,2059,1211,-1501500.0000000054,1410.989010989011,2025-03-25 11:48:38.617659
0,3896010,2034,2061,1210,-1501500.0000000054,1316.4835164835165,2025-03-25 11:48:38.626674
0,3896266,2034,2060,1212,-4504500.000000016,1385.3479853479853,2025-03-25 11:48:38.643618
0,3896522,2035,2059,1214,-1501500.0000000054,1517.216117216117,2025-03-25 11:48:38.643648
0,3896778,2033,2060,1212,-4504500.000000016,1495.2380952380952,2025-03-25 11:48:38.645714
0,3897034,2037,2059,1214,-1501500.0000000054,1366.3003663003662,2025-03-25 11:48:38.660591
0,3897290,2035,2060,1213,-1501500.0000000054,1319.4139194139193,2025-03-25 11:48:38.660621
0,3897546,2036,2060,1211,-1501500.0000000054,1443.956043956044,2025-03-25 11:48:38.667671
0,3897802,2036,2061,1211,-1501500.0000000054,1504.7619047619046,2025-03-25 11:48:38.682699
0,3898058,2037,2062,1212,-1501500.0000000054,1404.3956043956043,2025-03-25 11:48:38.686645
0,3898314,2035,2061,1213,-1501500.0000000054,1284.9816849816848,2025-03-25 11:48:38.695640
0,3898570,2035,2058,1210,-4504500.000000016,1315.7509157509157,2025-03-25 11:48:38.710655
0,3898826,2035,2059,1209,-4504500.000000016,1463.003663003663,2025-03-25 11:48:38.710685
0,3899082,2034,2060,1214,-1501500.0000000054,1452.7472527472526,2025-03-25 11:48:38.716516
0,3899338,2035,2057,1212,-1501500.0000000054,1334.065934065934,2025-03-25 11:48:38.727657
0,3899594,2034,2059,1213,-1501500.0000000054,1280.5860805860805,2025-03-25 11:48:38.736653
0,3899850,2037,2061,1212,-1501500.0000000054,1383.8827838827838,2025-03-25 11:48:38.741661
0,3900106,2037,2061,1210,-4504500.000000016,1485.7142857142856,2025-03-25 11:48:38.756653
0,3900362,2034,2057,1213,-4504500.000000016,1410.2564102564102,2025-03-25 11:48:38.756686
0,3900618,2034,2058,1214,-1501500.0000000054,1296.7032967032967,2025-03-25 11:48:38.756704
0,3900874,2036,2058,1214,-4504500.000000016,1317.216117216117,2025-03-25 11:48:38.772601
0,3901130,2037,2062,1212,-1501500.0000000054,1454.9450549450548,2025-03-25 11:48:38.778869
0,3901386,2036,2060,1211,-4504500.000000016,1475.4578754578754,2025-03-25 11:48:38.792741
0,3901642,2038,2058,1211,-1501500.0000000054,1356.0439560439559,2025-03-25 11:48:38.796683
0,3901898,2035,2060,1212,-1501500.0000000054,1279.8534798534797,2025-03-25 11:48:38.796721
0,3902154,2035,2061,1213,-900900.0000000031,1372.8937728937728,2025-03-25 11:48:38.806575
0,3902410,2036,2061,1212,-4504500.000000016,1475.4578754578754,2025-03-25 11:48:38.817712
0,3902666,2035,2059,1211,-4504500.000000016,1419.047619047619,2025-03-25 11:48:38.832665
0,3902922,2036,2059,1211,-4504500.000000016,1295.970695970696,2025-03-25 11:48:38.846664
0,3903178,2036,2060,1211,-4504500.000000016,1286.4468864468863,2025-03-25 11:48:38.846711
0,3903434,2035,2059,1212,-1501500.0000000054,1427.106227106227,2025-03-25 11:48:38.846732
0,3903690,2036,2058,1214,-1501500.0000000054,1454.9450549450548,2025-03-25 11:48:38.858567
0,3903946,2034,2058,1211,-4504500.000000016,1350.18315018315,2025-03-25 11:48:38.874026
0,3904202,2036,2061,1209,-1501500.0000000054,1270.3296703296703,2025-03-25 11:48:38.874056
0,3904458,2033,2059,1212,-1501500.0000000054,1347.985347985348,2025-03-25 11:48:38.892701
0,3904714,2036,2060,1211,-1501500.0000000054,1490.10989010989,2025-03-25 11:48:38.892732
0,3904970,2036,2058,1212,-4504500.000000016,1452.014652014652,2025-03-25 11:48:38.892750
0,3905226,2037,2060,1212,-1501500.0000000054,1329.6703296703297,2025-03-25 11:48:38.908869
0,3905482,2036,2060,1213,-1501500.0000000054,1304.0293040293038,2025-03-25 11:48:38.908900
0,3905738,2035,2059,1208,-1501500.0000000054,1429.3040293040292,2025-03-25 11:48:38.925707
0,3905994,2035,2061,1212,-4504500.000000016,1495.970695970696,2025-03-25 11:48:38.930712
0,3906250,2036,2060,1213,-4504500.000000016,1400.0,2025-03-25 11:48:38.951671
0,3906506,2035,2059,1213,-4504500.000000016,1304.7619047619046,2025-03-25 11:48:38.951703
0,3906762,2034,2059,1210,-1501500.0000000054,1364.8351648351647,2025-03-25 11:48:38.970694
0,3907018,2034,2057,1214,-4504500.000000016,1494.5054945054944,2025-03-25 11:48:38.970725
0,3907274,2035,2058,1212,-1501500.0000000054,1474.7252747252746,2025-03-25 11:48:38.977711
0,3907530,2035,2060,1212,-4504500.000000016,1344.3223443223442,2025-03-25 11:48:38.985963
0,3907786,2037,2061,1212,-4504500.000000016,1294.5054945054944,2025-03-25 11:48:38.992803
0,3908042,2037,2059,1213,-4504500.000000016,1413.9194139194137,2025-03-25 11:48:39.008789
0,3908298,2034,2059,1210,-1501500.0000000054,1485.7142857142856,2025-03-25 11:48:39.008820
0,3908554,2038,2060,1209,-1501500.0000000054,1401.4652014652013,2025-03-25 11:48:39.010728
0,3908810,2034,2061,1211,-1501500.0000000054,1290.10989010989,2025-03-25 11:48:39.010761
0,3909066,2035,2060,1211,-4504500.000000016,1323.076923076923,2025-03-25 11:48:39.022663
0,3909322,2036,2061,1215,-1501500.0000000054,1476.923076923077,2025-03-25 11:48:39.022694
0,3909578,2035,2058,1212,-4504500.000000016,1484.2490842490843,2025-03-25 11:48:39.038666
0,3909834,2035,2059,1211,-1501500.0000000054,1368.4981684981683,2025-03-25 11:48:39.056664
0,3910090,2035,2059,1210,-1501500.0000000054,1306.227106227106,2025-03-25 11:48:39.056696
0,3910346,2037,2061,1211,-1501500.0000000054,1400.7326007326005,2025-03-25 11:48:39.056714
0,3910602,2035,2061,1210,-1501500.0000000054,1504.0293040293038,2025-03-25 11:48:39.073692
0,3910858,2036,2060,1212,-1501500.0000000054,1428.5714285714284,2025-03-25 11:48:39.077685
0,3911114,2035,2060,1212,-1501500.0000000054,1310.6227106227104,2025-03-25 11:48:39.077716
0,3911370,2035,2060,1212,-4504500.000000016,1324.5421245421244,2025-03-25 11:48:39.103719
0,3911626,2037,2059,1212,-4504500.000000016,1462.2710622710622,2025-03-25 11:48:39.103750
0,3911882,2036,2060,1212,-4504500.000000016,1490.8424908424906,2025-03-25 11:48:39.103768
0,3912138,2036,2060,1214,-1501500.0000000054,1375.091575091575,2025-03-25 11:48:39.120695
0,3912394,2036,2058,1210,-4504500.000000016,1296.7032967032967,2025-03-25 11:48:39.125764
0,3912650,2035,2058,1214,-1501500.0000000054,1389.7435897435896,2025-03-25 11:48:39.142710
0,3912906,2035,2061,1214,-4504500.000000016,1502.5641025641025,2025-03-25 11:48:39.142742
0,3913162,2035,2059,1212,-4504500.000000016,1451.2820512820513,2025-03-25 11:48:39.145837
0,3913418,2036,2058,1213,-1501500.0000000054,1324.5421245421244,2025-03-25 11:48:39.167669
0,3913674,2035,2060,1213,-4504500.000000016,1306.227106227106,2025-03-25 11:48:39.167699
0,3913930,2035,2058,1210,-1501500.0000000054,1443.2234432234432,2025-03-25 11:48:39.167731
0,3914186,2034,2059,1210,-1501500.0000000054,1476.923076923077,2025-03-25 11:48:39.185777
0,3914442,2036,2061,1212,-4504500.000000016,1377.2893772893772,2025-03-25 11:48:39.190794
0,3914698,2035,2061,1211,-4504500.000000016,1293.040293040293,2025-03-25 11:48:39.190826
0,3914954,2037,2061,1213,-1501500.0000000054,1363.3699633699632,2025-03-25 11:48:39.213039
0,3915210,2035,2060,1212,-1501500.0000000054,1507.6923076923076,2025-03-25 11:48:39.213070
0,3915466,2036,2060,1213,-4504500.000000016,1470.3296703296703,2025-03-25 11:48:39.222717
0,3915722,2033,2060,1212,-1501500.0000000054,1349.4505494505493,2025-03-25 11:48:39.230811
0,3915978,2035,2060,1212,-1501500.0000000054,1323.8095238095236,2025-03-25 11:48:39.247662
0,3916234,2036,2060,1211,-1501500.0000000054,1449.084249084249,2025-03-25 11:48:39.247695
0,3916490,2035,2061,1213,-1501500.0000000054,1517.216117216117,2025-03-25 11:48:39.247713
0,3916746,2036,2059,1214,-1501500.0000000054,1413.1868131868132,2025-03-25 11:48:39.269673
0,3917002,2036,2058,1213,-1501500.0000000054,1304.0293040293038,2025-03-25 11:48:39.271527
0,3917258,2034,2059,1212,-1501500.0000000054,1354.5787545787546,2025-03-25 11:48:39.278616
0,3917514,2036,2062,1211,-1501500.0000000054,1489.3772893772893,2025-03-25 11:48:39.278657
0,3917770,2035,2059,1210,-1501500.0000000054,1481.3186813186812,2025-03-25 11:48:39.295677
0,3918026,2036,2061,1212,-1501500.0000000054,1358.2417582417581,2025-03-25 11:48:39.295716
0,3918282,2033,2062,1212,-1501500.0000000054,1306.9597069597069,2025-03-25 11:48:39.295739
0,3918538,2036,2060,1214,-1501500.0000000054,1424.9084249084249,2025-03-25 11:48:39.315864
0,3918794,2036,2060,1214,-1501500.0000000054,1503.2967032967033,2025-03-25 11:48:39.315898
0,3919050,2035,2062,1211,-1501500.0000000054,1421.245421245421,2025-03-25 11:48:39.330705
0,3919306,2035,2061,1212,-1501500.0000000054,1306.227106227106,2025-03-25 11:48:39.338722
0,3919562,2036,2061,1210,-4504500.000000016,1331.135531135531,2025-03-25 11:48:39.338766
0,3919818,2035,2059,1212,-1501500.0000000054,1482.051282051282,2025-03-25 11:48:39.353638
0,3920074,2035,2060,1211,-1501500.0000000054,1481.3186813186812,2025-03-25 11:48:39.355696
0,3920330,2036,2061,1211,-4504500.000000016,1361.1721611721612,2025-03-25 11:48:39.371777
0,3920586,2035,2061,1210,-1501500.0000000054,1294.5054945054944,2025-03-25 11:48:39.371809
0,3920842,2034,2061,1209,-1501500.0000000054,1384.6153846153845,2025-03-25 11:48:39.397720
0,3921098,2035,2062,1212,-1501500.0000000054,1489.3772893772893,2025-03-25 11:48:39.397752
0,3921354,2037,2059,1212,-4504500.000000016,1408.7912087912086,2025-03-25 11:48:39.401675
0,3921610,2036,2060,1214,-4504500.000000016,1276.923076923077,2025-03-25 11:48:39.418683
0,3921866,2035,2059,1214,-1501500.0000000054,1278.3882783882782,2025-03-25 11:48:39.418715
0,3922122,2035,2059,1213,-1501500.0000000054,1415.3846153846152,2025-03-25 11:48:39.420920
0,3922378,2035,2059,1210,-1501500.0000000054,1453.4798534798533,2025-03-25 11:48:39.431542
0,3922634,2034,2061,1216,-4504500.000000016,1337.7289377289376,2025-03-25 11:48:39.438682
0,3922890,2034,2059,1211,-1501500.0000000054,1254.9450549450548,2025-03-25 11:48:39.438724
0,3923146,2035,2062,1213,-4504500.000000016,1344.3223443223442,2025-03-25 11:48:39.453693
0,3923402,2035,2058,1212,-1501500.0000000054,1468.131868131868,2025-03-25 11:48:39.453725
0,3923658,2036,2060,1209,-1501500.0000000054,1432.9670329670328,2025-03-25 11:48:39.473632
0,3923914,2034,2061,1209,-4504500.000000016,1315.7509157509157,2025-03-25 11:48:39.475547
0,3924170,2034,2060,1214,-4504500.000000016,1301.8315018315018,2025-03-25 11:48:39.487628
0,3924426,2036,2058,1213,-1501500.0000000054,1442.4908424908424,2025-03-25 11:48:39.487657
0,3924682,2039,2060,1214,-1501500.0000000054,1484.2490842490843,2025-03-25 11:48:39.503680
0,3924938,2035,2059,1211,-1501500.0000000054,1380.2197802197802,2025-03-25 11:48:39.505721
0,3925194,2036,2059,1212,-1501500.0000000054,1279.8534798534797,2025-03-25 11:48:39.505756
0,3925450,2035,2060,1210,-1501500.0000000054,1327.4725274725274,2025-03-25 11:48:39.527843
0,3925706,2035,2060,1214,-1501500.0000000054,1460.8058608058607,2025-03-25 11:48:39.527874
0,3925962,2038,2059,1212,-1501500.0000000054,1427.106227106227,2025-03-25 11:48:39.543731
0,3926218,2036,2057,1212,-1501500.0000000054,1308.4249084249084,2025-03-25 11:48:39.548992
0,3926474,2035,2060,1209,-1501500.0000000054,1281.3186813186812,2025-03-25 11:48:39.549024
0,3926730,2037,2062,1209,-1501500.0000000054,1412.4542124542124,2025-03-25 11:48:39.565693
0,3926986,2034,2059,1211,-1501500.0000000054,1503.2967032967033,2025-03-25 11:48:39.565724
0,3927242,2036,2060,1214,-1501500.0000000054,1421.245421245421,2025-03-25 11:48:39.581763
0,3927498,2036,2060,1217,-4504500.000000016,1317.216117216117,2025-03-25 11:48:39.585685
0,3927754,2036,2060,1211,-1501500.0000000054,1357.5091575091574,2025-03-25 11:48:39.585724
0,3928010,2033,2060,1210,-4504500.000000016,1491.5750915750914,2025-03-25 11:48:39.596831
0,3928266,2035,2060,1210,-4504500.000000016,1483.5164835164835,2025-03-25 11:48:39.605751
0,3928522,2035,2062,1211,-4504500.000000016,1352.3809523809523,2025-03-25 11:48:39.622680
0,3928778,2036,2060,1214,-1501500.0000000054,1284.2490842490843,2025-03-25 11:48:39.622712
0,3929034,2035,2061,1214,-1501500.0000000054,1388.278388278388,2025-03-25 11:48:39.640732
0,3929290,2036,2061,1210,-1501500.0000000054,1470.3296703296703,2025-03-25 11:48:39.640764
0,3929546,2033,2057,1209,-1501500.0000000054,1397.069597069597,2025-03-25 11:48:39.646819
0,3929802,2036,2060,1212,-4504500.000000016,1284.9816849816848,2025-03-25 11:48:39.662713
0,3930058,2036,2058,1210,-1501500.0000000054,1306.227106227106,2025-03-25 11:48:39.662744
0,3930314,2036,2062,1213,-1501500.0000000054,1463.7362637362637,2025-03-25 11:48:39.668638
0,3930570,2034,2060,1214,-1501500.0000000054,1476.923076923077,2025-03-25 11:48:39.693617
0,3930826,2036,2060,1211,-4504500.000000016,1362.6373626373625,2025-03-25 11:48:39.698699
0,3931082,2035,2060,1212,-1501500.0000000054,1292.3076923076922,2025-03-25 11:48:39.698734
0,3931338,2036,2058,1208,-1501500.0000000054,1379.4871794871794,2025-03-25 11:48:39.720724
0,3931594,2036,2059,1213,-4504500.000000016,1493.040293040293,2025-03-25 11:48:39.720755
0,3931850,2036,2061,1215,-4504500.000000016,1419.7802197802198,2025-03-25 11:48:39.720773
0,3932106,2037,2062,1213,-4504500.000000016,1287.9120879120878,2025-03-25 11:48:39.737704
0,3932362,2036,2060,1209,-1501500.0000000054,1281.3186813186812,2025-03-25 11:48:39.737735
0,3932618,2036,2060,1209,-1501500.0000000054,1281.3186813186812,2025-03-25 11:48:39.745683
0,3932874,2034,2060,1212,-4504500.000000016,1472.5274725274724,2025-03-25 11:48:39.753717
0,3933130,2035,2059,1212,-1501500.0000000054,1364.8351648351647,2025-03-25 11:48:39.757733
0,3933386,2036,2058,1212,-4504500.000000016,1280.5860805860805,2025-03-25 11:48:39.772698
0,3933642,2033,2061,1212,-1501500.0000000054,1361.1721611721612,2025-03-25 11:48:39.772731
0,3933898,2036,2062,1212,-1501500.0000000054,1481.3186813186812,2025-03-25 11:48:39.772749
0,3934154,2035,2060,1208,-4504500.000000016,1436.6300366300366,2025-03-25 11:48:39.787697
0,3934410,2036,2061,1212,-1501500.0000000054,1304.0293040293038,2025-03-25 11:48:39.805728
0,3934666,2035,2061,1212,-4504500.000000016,1275.4578754578754,2025-03-25 11:48:39.805759
0,3934922,2036,2061,1214,-1501500.0000000054,1409.5238095238094,2025-03-25 11:48:39.805777
0,3935178,2036,2059,1211,-4504500.000000016,1465.201465201465,2025-03-25 11:48:39.822709
0,3935434,2037,2058,1212,-1501500.0000000054,1377.2893772893772,2025-03-25 11:48:39.830684
0,3935690,2037,2059,1209,-1501500.0000000054,1284.9816849816848,2025-03-25 11:48:39.830715
0,3935946,2035,2060,1214,-1501500.0000000054,1341.3919413919414,2025-03-25 11:48:39.837701
0,3936202,2035,2060,1212,-4504500.000000016,1488.6446886446886,2025-03-25 11:48:39.845693
0,3936458,2036,2061,1211,-1501500.0000000054,1462.2710622710622,2025-03-25 11:48:39.859632
0,3936714,2038,2060,1213,-1501500.0000000054,1338.4615384615383,2025-03-25 11:48:39.867649
0,3936970,2036,2060,1210,-1501500.0000000054,1294.5054945054944,2025-03-25 11:48:39.872799
0,3937226,2036,2059,1211,-4504500.000000016,1403.6630036630036,2025-03-25 11:48:39.886701
0,3937482,2034,2060,1212,-4504500.000000016,1490.8424908424906,2025-03-25 11:48:39.886734
0,3937738,2037,2060,1213,-1501500.0000000054,1405.8608058608058,2025-03-25 11:48:39.895668
0,3937994,2037,2061,1213,-1501500.0000000054,1294.5054945054944,2025-03-25 11:48:39.911618
0,3938250,2036,2060,1213,-1501500.0000000054,1329.6703296703297,2025-03-25 11:48:39.916620
0,3938506,2036,2060,1212,-1501500.0000000054,1468.8644688644688,2025-03-25 11:48:39.916659
0,3938762,2035,2062,1209,-1501500.0000000054,1476.1904761904761,2025-03-25 11:48:39.924625
0,3939018,2034,2060,1214,-1501500.0000000054,1358.974358974359,2025-03-25 11:48:39.941674
0,3939274,2035,2058,1213,-4504500.000000016,1299.6336996336995,2025-03-25 11:48:39.948637
0,3939530,2035,2060,1214,-1501500.0000000054,1416.117216117216,2025-03-25 11:48:39.955719
0,3939786,2037,2061,1213,-1501500.0000000054,1518.6813186813185,2025-03-25 11:48:39.955759
0,3940042,2035,2061,1210,-4504500.000000016,1453.4798534798533,2025-03-25 11:48:39.970618
0,3940298,2035,2057,1214,-4504500.000000016,1335.5311355311355,2025-03-25 11:48:39.977729
0,3940554,2036,2058,1212,-1501500.0000000054,1340.6593406593406,2025-03-25 11:48:39.992693
0,3940810,2036,2060,1216,-4504500.000000016,1486.4468864468863,2025-03-25 11:48:39.992725
0,3941066,2037,2060,1213,-4504500.000000016,1500.3663003663003,2025-03-25 11:48:40.009737
0,3941322,2035,2060,1211,-4504500.000000016,1380.952380952381,2025-03-25 11:48:40.022705
0,3941578,2036,2060,1213,-4504500.000000016,1289.3772893772893,2025-03-25 11:48:40.022739
0,3941834,2038,2061,1212,-1501500.0000000054,1350.9157509157508,2025-03-25 11:48:40.036631
0,3942090,2038,2060,1212,-1501500.0000000054,1462.2710622710622,2025-03-25 11:48:40.036664
0,3942346,2036,2060,1211,-1501500.0000000054,1399.2673992673992,2025-03-25 11:48:40.038779
0,3942602,2036,2062,1212,-1501500.0000000054,1274.7252747252746,2025-03-25 11:48:40.056690
0,3942858,2035,2059,1212,-1501500.0000000054,1272.5274725274724,2025-03-25 11:48:40.056722
0,3943114,2037,2059,1214,-4504500.000000016,1415.3846153846152,2025-03-25 11:48:40.056739
0,3943370,2036,2059,1214,-1501500.0000000054,1473.9926739926739,2025-03-25 11:48:40.078680
0,3943626,2035,2060,1211,-1501500.0000000054,1377.2893772893772,2025-03-25 11:48:40.080727
0,3943882,2034,2061,1212,-1501500.0000000054,1291.5750915750914,2025-03-25 11:48:40.087665
0,3944138,2038,2060,1212,-1501500.0000000054,1367.032967032967,2025-03-25 11:48:40.096678
0,3944394,2037,2059,1212,-1501500.0000000054,1495.2380952380952,2025-03-25 11:48:40.096709
0,3944650,2037,2058,1213,-1501500.0000000054,1465.201465201465,2025-03-25 11:48:40.111725
0,3944906,2035,2059,1214,-1501500.0000000054,1342.1245421245421,2025-03-25 11:48:40.117759
0,3945162,2037,2060,1213,-1501500.0000000054,1309.1575091575091,2025-03-25 11:48:40.142775
0,3945418,2034,2060,1212,-1501500.0000000054,1442.4908424908424,2025-03-25 11:48:40.142806
0,3945674,2035,2060,1214,-1501500.0000000054,1504.0293040293038,2025-03-25 11:48:40.142823
0,3945930,2035,2060,1210,-1501500.0000000054,1409.5238095238094,2025-03-25 11:48:40.145674
0,3946186,2036,2060,1212,-1501500.0000000054,1301.098901098901,2025-03-25 11:48:40.160684
0,3946442,2035,2060,1211,-1501500.0000000054,1335.5311355311355,2025-03-25 11:48:40.167652
0,3946698,2034,2061,1213,-1501500.0000000054,1474.7252747252746,2025-03-25 11:48:40.167689
0,3946954,2036,2059,1213,-1501500.0000000054,1452.014652014652,2025-03-25 11:48:40.176656
0,3947210,2036,2060,1212,-1501500.0000000054,1326.7399267399267,2025-03-25 11:48:40.191658
0,3947466,2036,2060,1212,-1501500.0000000054,1276.1904761904761,2025-03-25 11:48:40.196675
0,3947722,2035,2059,1212,-1501500.0000000054,1384.6153846153845,2025-03-25 11:48:40.205720
0,3947978,2035,2057,1211,-1501500.0000000054,1480.5860805860805,2025-03-25 11:48:40.205752
0,3948234,2035,2059,1214,-1501500.0000000054,1400.0,2025-03-25 11:48:40.220775
0,3948490,2037,2059,1213,-1501500.0000000054,1287.179487179487,2025-03-25 11:48:40.227678
0,3948746,2035,2060,1211,-1501500.0000000054,1317.216117216117,2025-03-25 11:48:40.245728
0,3949002,2037,2060,1211,-1501500.0000000054,1460.07326007326,2025-03-25 11:48:40.245759
0,3949258,2035,2059,1209,-4504500.000000016,1475.4578754578754,2025-03-25 11:48:40.245776
0,3949514,2036,2060,1212,-1501500.0000000054,1352.3809523809523,2025-03-25 11:48:40.262754
0,3949770,2036,2059,1213,-1501500.0000000054,1279.8534798534797,2025-03-25 11:48:40.262786
0,3950026,2036,2060,1211,-1501500.0000000054,1380.2197802197802,2025-03-25 11:48:40.279532
0,3950282,2036,2060,1212,-1501500.0000000054,1482.051282051282,2025-03-25 11:48:40.279563
0,3950538,2035,2058,1210,-1501500.0000000054,1422.7106227106226,2025-03-25 11:48:40.293682
0,3950794,2033,2059,1212,-1501500.0000000054,1302.5641025641025,2025-03-25 11:48:40.296777
0,3951050,2036,2060,1212,-4504500.000000016,1301.098901098901,2025-03-25 11:48:40.296813
0,3951306,2036,2059,1210,-1501500.0000000054,1445.4212454212454,2025-03-25 11:48:40.307787
0,3951562,2034,2058,1211,-1501500.0000000054,1473.9926739926739,2025-03-25 11:48:40.322664
0,3951818,2034,2058,1210,-1501500.0000000054,1371.4285714285713,2025-03-25 11:48:40.326706
0,3952074,2034,2059,1211,-1501500.0000000054,1295.2380952380952,2025-03-25 11:48:40.337761
0,3952330,2038,2060,1213,-1501500.0000000054,1380.2197802197802,2025-03-25 11:48:40.337794
0,3952586,2034,2059,1212,-4504500.000000016,1517.9487179487178,2025-03-25 11:48:40.353864
0,3952842,2036,2062,1213,-1501500.0000000054,1476.923076923077,2025-03-25 11:48:40.356827
0,3953098,2036,2059,1213,-1501500.0000000054,1361.904761904762,2025-03-25 11:48:40.370792
0,3953354,2037,2061,1211,-1501500.0000000054,1345.7875457875457,2025-03-25 11:48:40.373820
0,3953610,2035,2061,1212,-4504500.000000016,1472.5274725274724,2025-03-25 11:48:40.373851
0,3953866,2035,2060,1214,-1501500.0000000054,1531.8681318681317,2025-03-25 11:48:40.386802
0,3954122,2037,2059,1212,-1501500.0000000054,1430.03663003663,2025-03-25 11:48:40.401856
0,3954378,2038,2061,1212,-1501500.0000000054,1331.135531135531,2025-03-25 11:48:40.408875
0,3954634,2036,2062,1212,-1501500.0000000054,1389.0109890109889,2025-03-25 11:48:40.427703
0,3954890,2034,2060,1212,-1501500.0000000054,1517.216117216117,2025-03-25 11:48:40.427735
0,3955146,2034,2061,1213,-1501500.0000000054,1493.040293040293,2025-03-25 11:48:40.435871
0,3955402,2035,2061,1214,-1501500.0000000054,1359.7069597069597,2025-03-25 11:48:40.442823
0,3955658,2036,2061,1213,-1501500.0000000054,1309.1575091575091,2025-03-25 11:48:40.442854
0,3955914,2036,2059,1210,-1501500.0000000054,1429.3040293040292,2025-03-25 11:48:40.457598
0,3956170,2036,2059,1210,-4504500.000000016,1497.4358974358972,2025-03-25 11:48:40.457631
0,3956426,2036,2059,1212,-1501500.0000000054,1413.1868131868132,2025-03-25 11:48:40.476867
0,3956682,2035,2060,1213,-1501500.0000000054,1305.4945054945053,2025-03-25 11:48:40.491924
0,3956938,2036,2060,1212,-1501500.0000000054,1339.194139194139,2025-03-25 11:48:40.491954
0,3957194,2036,2060,1209,-1501500.0000000054,1489.3772893772893,2025-03-25 11:48:40.496775
0,3957450,2037,2061,1211,-1501500.0000000054,1482.051282051282,2025-03-25 11:48:40.502777
0,3957706,2036,2060,1212,-4504500.000000016,1358.2417582417581,2025-03-25 11:48:40.518803
0,3957962,2035,2059,1213,-1501500.0000000054,1289.3772893772893,2025-03-25 11:48:40.518835
0,3958218,2035,2058,1210,-4504500.000000016,1378.021978021978,2025-03-25 11:48:40.536868
0,3958474,2035,2061,1216,-1501500.0000000054,1473.260073260073,2025-03-25 11:48:40.536899
0,3958730,2035,2061,1212,-4504500.000000016,1392.6739926739926,2025-03-25 11:48:40.536917
0,3958986,2037,2059,1210,-1501500.0000000054,1275.4578754578754,2025-03-25 11:48:40.551773
0,3959242,2035,2060,1212,-1501500.0000000054,1297.4358974358975,2025-03-25 11:48:40.551805
0,3959498,2036,2059,1212,-4504500.000000016,1441.0256410256409,2025-03-25 11:48:40.560728
0,3959754,2035,2060,1213,-1501500.0000000054,1468.8644688644688,2025-03-25 11:48:40.575707
0,3960010,2035,2059,1214,-4504500.000000016,1354.5787545787546,2025-03-25 11:48:40.582853
0,3960266,2034,2059,1210,-1501500.0000000054,1283.5164835164835,2025-03-25 11:48:40.582883
0,3960522,2035,2059,1212,-1501500.0000000054,1380.2197802197802,2025-03-25 11:48:40.586748
0,3960778,2034,2058,1211,-1501500.0000000054,1491.5750915750914,2025-03-25 11:48:40.602753
0,3961034,2033,2060,1213,-1501500.0000000054,1444.6886446886447,2025-03-25 11:48:40.602784
0,3961290,2035,2061,1216,-1501500.0000000054,1326.007326007326,2025-03-25 11:48:40.621787
0,3961546,2036,2061,1211,-1501500.0000000054,1315.7509157509157,2025-03-25 11:48:40.625869
0,3961802,2036,2059,1212,-1501500.0000000054,1460.8058608058607,2025-03-25 11:48:40.625912
0,3962058,2036,2059,1211,-1501500.0000000054,1504.0293040293038,2025-03-25 11:48:40.638728
0,3962314,2035,2060,1214,-1501500.0000000054,1406.5934065934066,2025-03-25 11:48:40.646802
0,3962570,2036,2061,1215,-1501500.0000000054,1320.14652014652,2025-03-25 11:48:40.663681
0,3962826,2036,2058,1213,-1501500.0000000054,1383.150183150183,2025-03-25 11:48:40.663733
0,3963082,2035,2060,1212,-1501500.0000000054,1515.7509157509157,2025-03-25 11:48:40.665662
0,3963338,2036,2059,1212,-1501500.0000000054,1466.6666666666665,2025-03-25 11:48:40.685696
0,3963594,2038,2059,1212,-4504500.000000016,1339.9267399267399,2025-03-25 11:48:40.690727
0,3963850,2036,2057,1215,-1501500.0000000054,1315.018315018315,2025-03-25 11:48:40.690768
0,3964106,2035,2059,1215,-1501500.0000000054,1441.0256410256409,2025-03-25 11:48:40.713815
0,3964362,2035,2060,1212,-1501500.0000000054,1515.7509157509157,2025-03-25 11:48:40.713861
0,3964618,2035,2061,1212,-1501500.0000000054,1419.7802197802198,2025-03-25 11:48:40.715699
0,3964874,2034,2060,1213,-1501500.0000000054,1316.4835164835165,2025-03-25 11:48:40.730849
0,3965130,2033,2058,1211,-1501500.0000000054,1367.7655677655678,2025-03-25 11:48:40.740470
0,3965386,2034,2058,1216,-1501500.0000000054,1501.8315018315018,2025-03-25 11:48:40.740513
0,3965642,2035,2060,1213,-1501500.0000000054,1480.5860805860805,2025-03-25 11:48:40.753732
0,3965898,2037,2062,1212,-1501500.0000000054,1339.9267399267399,2025-03-25 11:48:40.755671
0,3966154,2036,2060,1212,-1501500.0000000054,1274.7252747252746,2025-03-25 11:48:40.770692
0,3966410,2035,2060,1215,-4504500.000000016,1382.4175824175823,2025-03-25 11:48:40.777632
0,3966666,2036,2059,1212,-4504500.000000016,1460.07326007326,2025-03-25 11:48:40.777671
0,3966922,2036,2059,1213,-4504500.000000016,1380.2197802197802,2025-03-25 11:48:40.791494
0,3967178,2036,2060,1213,-1501500.0000000054,1265.9340659340658,2025-03-25 11:48:40.803594
0,3967434,2036,2061,1212,-1501500.0000000054,1286.4468864468863,2025-03-25 11:48:40.803639
0,3967690,2035,2060,1212,-1501500.0000000054,1437.3626373626373,2025-03-25 11:48:40.811655
0,3967946,2035,2059,1211,-1501500.0000000054,1441.7582417582416,2025-03-25 11:48:40.827794
0,3968202,2033,2060,1212,-1501500.0000000054,1331.8681318681317,2025-03-25 11:48:40.833738
0,3968458,2034,2059,1214,-1501500.0000000054,1275.4578754578754,2025-03-25 11:48:40.833798
0,3968714,2035,2060,1215,-1501500.0000000054,1376.5567765567764,2025-03-25 11:48:40.841851
0,3968970,2036,2062,1212,-1501500.0000000054,1493.7728937728937,2025-03-25 11:48:40.857601
0,3969226,2035,2058,1209,-4504500.000000016,1427.106227106227,2025-03-25 11:48:40.873035
0,3969482,2034,2060,1208,-4504500.000000016,1309.1575091575091,2025-03-25 11:48:40.880570
0,3969738,2035,2060,1212,-1501500.0000000054,1317.216117216117,2025-03-25 11:48:40.880607
0,3969994,2037,2060,1214,-1501500.0000000054,1454.9450549450548,2025-03-25 11:48:40.880629
0,3970250,2037,2060,1211,-1501500.0000000054,1490.10989010989,2025-03-25 11:48:40.895568
0,3970506,2035,2060,1210,-4504500.000000016,1379.4871794871794,2025-03-25 11:48:40.897553
0,3970762,2035,2061,1212,-1501500.0000000054,1298.9010989010987,2025-03-25 11:48:40.908856
0,3971018,2034,2059,1208,-1501500.0000000054,1386.080586080586,2025-03-25 11:48:40.908917
0,3971274,2036,2060,1213,-1501500.0000000054,1506.9597069597069,2025-03-25 11:48:40.926835
0,3971530,2035,2057,1212,-1501500.0000000054,1465.201465201465,2025-03-25 11:48:40.926874
0,3971786,2036,2061,1213,-1501500.0000000054,1339.194139194139,2025-03-25 11:48:40.938852
0,3972042,2036,2061,1210,-1501500.0000000054,1315.7509157509157,2025-03-25 11:48:40.938890
0,3972298,2035,2060,1209,-1501500.0000000054,1456.4102564102564,2025-03-25 11:48:40.956791
0,3972554,2035,2062,1211,4504500.000000016,1502.5641025641025,2025-03-25 11:48:40.956831
0,3972810,2036,2060,1213,-1501500.0000000054,1403.6630036630036,2025-03-25 11:48:40.966793
0,3973066,2036,2060,1212,-1501500.0000000054,1309.89010989011,2025-03-25 11:48:40.978887
0,3973322,2035,2059,1213,-1501500.0000000054,1370.6959706959706,2025-03-25 11:48:40.992904
0,3973578,2035,2060,1212,-4504500.000000016,1511.3553113553112,2025-03-25 11:48:40.992945
0,3973834,2035,2063,1210,-1501500.0000000054,1476.923076923077,2025-03-25 11:48:40.992984
0,3974090,2036,2059,1210,-4504500.000000016,1351.6483516483515,2025-03-25 11:48:41.008897
0,3974346,2036,2061,1213,-1501500.0000000054,1317.216117216117,2025-03-25 11:48:41.016950
0,3974602,2035,2058,1215,-1501500.0000000054,1438.8278388278388,2025-03-25 11:48:41.031819
0,3974858,2037,2061,1213,-1501500.0000000054,1515.7509157509157,2025-03-25 11:48:41.031857
0,3975114,2036,2058,1210,-1501500.0000000054,1416.8498168498168,2025-03-25 11:48:41.037855
0,3975370,2037,2060,1210,-4504500.000000016,1304.7619047619046,2025-03-25 11:48:41.053925
0,3975626,2036,2060,1211,-1501500.0000000054,1340.6593406593406,2025-03-25 11:48:41.053964
0,3975882,2036,2063,1215,-1501500.0000000054,1473.9926739926739,2025-03-25 11:48:41.075794
0,3976138,2036,2060,1215,-1501500.0000000054,1468.8644688644688,2025-03-25 11:48:41.075834
0,3976394,2036,2059,1214,-1501500.0000000054,1342.1245421245421,2025-03-25 11:48:41.080706
0,3976650,2035,2062,1211,-1501500.0000000054,1284.2490842490843,2025-03-25 11:48:41.085788
0,3976906,2036,2061,1211,-1501500.0000000054,1405.128205128205,2025-03-25 11:48:41.085867
0,3977162,2035,2060,1215,-4504500.000000016,1497.4358974358972,2025-03-25 11:48:41.103697
0,3977418,2036,2060,1215,-1501500.0000000054,1425.6410256410256,2025-03-25 11:48:41.110714
0,3977674,2036,2060,1215,-1501500.0000000054,1307.6923076923076,2025-03-25 11:48:41.115769
0,3977930,2036,2061,1211,-1501500.0000000054,1316.4835164835165,2025-03-25 11:48:41.125713
0,3978186,2034,2059,1207,-1501500.0000000054,1462.2710622710622,2025-03-25 11:48:41.125736
0,3978442,2034,2060,1211,-1501500.0000000054,1473.260073260073,2025-03-25 11:48:41.150614
0,3978698,2037,2062,1212,-4504500.000000016,1353.113553113553,2025-03-25 11:48:41.150636
0,3978954,2036,2061,1215,-1501500.0000000054,1274.7252747252746,2025-03-25 11:48:41.157695
0,3979210,2036,2058,1213,-4504500.000000016,1362.6373626373625,2025-03-25 11:48:41.157732
0,3979466,2036,2057,1209,-4504500.000000016,1487.179487179487,2025-03-25 11:48:41.175675
0,3979722,2037,2059,1208,-4504500.000000016,1431.5018315018315,2025-03-25 11:48:41.175699
0,3979978,2036,2062,1211,-1501500.0000000054,1317.216117216117,2025-03-25 11:48:41.188670
0,3980234,2037,2060,1214,-4504500.000000016,1316.4835164835165,2025-03-25 11:48:41.195680
0,3980490,2036,2059,1215,-1501500.0000000054,1447.6190476190475,2025-03-25 11:48:41.205658
0,3980746,2036,2058,1215,-1501500.0000000054,1487.9120879120878,2025-03-25 11:48:41.205681
0,3981002,2037,2060,1210,-1501500.0000000054,1371.4285714285713,2025-03-25 11:48:41.219624
0,3981258,2035,2061,1211,-1501500.0000000054,1276.1904761904761,2025-03-25 11:48:41.236866
0,3981514,2035,2060,1212,-4504500.000000016,1350.18315018315,2025-03-25 11:48:41.238738
0,3981770,2036,2060,1212,-4504500.000000016,1473.260073260073,2025-03-25 11:48:41.240705
0,3982026,2037,2060,1212,-1501500.0000000054,1439.5604395604394,2025-03-25 11:48:41.252783
0,3982282,2036,2059,1212,-1501500.0000000054,1312.8205128205127,2025-03-25 11:48:41.270727
0,3982538,2035,2059,1208,-1501500.0000000054,1287.9120879120878,2025-03-25 11:48:41.270751
0,3982794,2035,2059,1211,-1501500.0000000054,1430.7692307692307,2025-03-25 11:48:41.279742
0,3983050,2034,2060,1213,-1501500.0000000054,1490.8424908424906,2025-03-25 11:48:41.279766
0,3983306,2036,2060,1214,-4504500.000000016,1397.8021978021977,2025-03-25 11:48:41.299722
0,3983562,2038,2061,1214,-1501500.0000000054,1295.970695970696,2025-03-25 11:48:41.299747
0,3983818,2037,2059,1209,-4504500.000000016,1343.5897435897434,2025-03-25 11:48:41.299759
0,3984074,2034,2059,1211,-4504500.000000016,1488.6446886446886,2025-03-25 11:48:41.316615
0,3984330,2037,2058,1211,-4504500.000000016,1460.8058608058607,2025-03-25 11:48:41.321700
0,3984586,2036,2059,1215,-4504500.000000016,1336.9963369963368,2025-03-25 11:48:41.329891
0,3984842,2036,2058,1215,-1501500.0000000054,1296.7032967032967,2025-03-25 11:48:41.348701
0,3985098,2037,2062,1210,-4504500.000000016,1418.3150183150183,2025-03-25 11:48:41.348740
0,3985354,2037,2060,1210,-4504500.000000016,1521.6117216117216,2025-03-25 11:48:41.350683
0,3985610,2035,2059,1211,-1501500.0000000054,1443.956043956044,2025-03-25 11:48:41.362771
0,3985866,2034,2060,1214,-1501500.0000000054,1336.263736263736,2025-03-25 11:48:41.371732
0,3986122,2037,2061,1213,-4504500.000000016,1360.4395604395604,2025-03-25 11:48:41.371769
0,3986378,2036,2059,1211,-1501500.0000000054,1471.7948717948716,2025-03-25 11:48:41.376719
0,3986634,2035,2057,1209,-1501500.0000000054,1449.084249084249,2025-03-25 11:48:41.392777
0,3986890,2035,2060,1212,-4504500.000000016,1300.3663003663003,2025-03-25 11:48:41.392810
0,3987146,2037,2061,1212,-1501500.0000000054,1212.4542124542124,2025-03-25 11:48:41.411721
0,3987402,2036,2059,1214,-1501500.0000000054,1301.098901098901,2025-03-25 11:48:41.411767
0,3987658,2038,2060,1212,-4504500.000000016,1387.5457875457876,2025-03-25 11:48:41.426750
0,3987914,2037,2060,1213,-1501500.0000000054,1317.216117216117,2025-03-25 11:48:41.426780
0,3988170,2037,2060,1212,-4504500.000000016,1189.7435897435896,2025-03-25 11:48:41.436527
0,3988426,2036,2059,1209,-1501500.0000000054,1190.4761904761904,2025-03-25 11:48:41.455659
0,3988682,2036,2060,1211,-4504500.000000016,1343.5897435897434,2025-03-25 11:48:41.455690
0,3988938,2035,2060,1214,-1501500.0000000054,1377.2893772893772,2025-03-25 11:48:41.455707
0,3989194,2035,2061,1214,-1501500.0000000054,1286.4468864468863,2025-03-25 11:48:41.473740
0,3989450,2036,2061,1211,-1501500.0000000054,1222.7106227106226,2025-03-25 11:48:41.478807
0,3989706,2034,2061,1213,-4504500.000000016,1315.7509157509157,2025-03-25 11:48:41.478842
0,3989962,2037,2060,1210,-1501500.0000000054,1461.5384615384614,2025-03-25 11:48:41.495697
0,3990218,2036,2062,1212,-1501500.0000000054,1429.3040293040292,2025-03-25 11:48:41.495743
0,3990474,2037,2057,1213,-1501500.0000000054,1317.9487179487178,2025-03-25 11:48:41.512775
0,3990730,2035,2059,1212,-4504500.000000016,1310.6227106227104,2025-03-25 11:48:41.512806
0,3990986,2036,2058,1210,-4504500.000000016,1443.956043956044,2025-03-25 11:48:41.527703
0,3991242,2036,2060,1211,-4504500.000000016,1506.227106227106,2025-03-25 11:48:41.527734
0,3991498,2036,2060,1212,-1501500.0000000054,1408.058608058608,2025-03-25 11:48:41.536748
0,3991754,2036,2062,1213,-1501500.0000000054,1320.8791208791208,2025-03-25 11:48:41.555800
0,3992010,2035,2061,1211,-1501500.0000000054,1392.6739926739926,2025-03-25 11:48:41.555831
0,3992266,2036,2059,1214,-1501500.0000000054,1526.007326007326,2025-03-25 11:48:41.561851
0,3992522,2036,2059,1209,-1501500.0000000054,1502.5641025641025,2025-03-25 11:48:41.572718
0,3992778,2034,2059,1212,-1501500.0000000054,1374.3589743589744,2025-03-25 11:48:41.580894
0,3993034,2035,2060,1212,-4504500.000000016,1328.937728937729,2025-03-25 11:48:41.580926
0,3993290,2037,2061,1212,-1501500.0000000054,1452.7472527472526,2025-03-25 11:48:41.596724
0,3993546,2035,2060,1211,-4504500.000000016,1514.2857142857142,2025-03-25 11:48:41.603718
0,3993802,2036,2060,1211,-1501500.0000000054,1438.8278388278388,2025-03-25 11:48:41.608855
0,3994058,2034,2057,1211,-4504500.000000016,1357.5091575091574,2025-03-25 11:48:41.625857
0,3994314,2037,2061,1212,-1501500.0000000054,1422.7106227106226,2025-03-25 11:48:41.625886
0,3994570,2035,2061,1211,-1501500.0000000054,1597.8021978021977,2025-03-25 11:48:41.625902
0,3994826,2037,2060,1213,-4504500.000000016,1603.6630036630036,2025-03-25 11:48:41.643866
0,3995082,2035,2060,1209,-4504500.000000016,1487.9120879120878,2025-03-25 11:48:41.645621
0,3995338,2037,2061,1211,-4504500.000000016,1430.03663003663,2025-03-25 11:48:41.660672
0,3995594,2034,2060,1212,-1501500.0000000054,1523.8095238095236,2025-03-25 11:48:41.660766
0,3995850,2036,2059,1213,-1501500.0000000054,1606.5934065934066,2025-03-25 11:48:41.667730
0,3996106,2035,2059,1213,-1501500.0000000054,1508.4249084249084,2025-03-25 11:48:41.683599
0,3996362,2038,2059,1214,-1501500.0000000054,1375.8241758241757,2025-03-25 11:48:41.685688
0,3996618,2037,2056,1211,-1501500.0000000054,1381.6849816849815,2025-03-25 11:48:41.701653
0,3996874,2037,2058,1210,-1501500.0000000054,1505.4945054945053,2025-03-25 11:48:41.701684
0,3997130,2036,2060,1210,-1501500.0000000054,1505.4945054945053,2025-03-25 11:48:41.701702
0,3997386,2036,2060,1212,-1501500.0000000054,1370.6959706959706,2025-03-25 11:48:41.718718
0,3997642,2034,2059,1211,-1501500.0000000054,1282.051282051282,2025-03-25 11:48:41.737704
0,3997898,2035,2061,1214,-4504500.000000016,1372.161172161172,2025-03-25 11:48:41.737743
0,3998154,2035,2061,1212,-4504500.000000016,1476.923076923077,2025-03-25 11:48:41.740802
0,3998410,2035,2060,1209,-1501500.0000000054,1421.245421245421,2025-03-25 11:48:41.755776
0,3998666,2035,2062,1211,-1501500.0000000054,1293.040293040293,2025-03-25 11:48:41.755807
0,3998922,2037,2061,1210,-1501500.0000000054,1282.7838827838827,2025-03-25 11:48:41.755825
0,3999178,2035,2061,1211,-4504500.000000016,1429.3040293040292,2025-03-25 11:48:41.773797
0,3999434,2037,2060,1214,-4504500.000000016,1471.062271062271,2025-03-25 11:48:41.773829
0,3999690,2035,2059,1211,-4504500.000000016,1375.8241758241757,2025-03-25 11:48:41.783744
0,3999946,2035,2062,1211,-1501500.0000000054,1292.3076923076922,2025-03-25 11:48:41.807751
0,4000202,2036,2058,1211,-4504500.000000016,1362.6373626373625,2025-03-25 11:48:41.807788
