type,time stamp,Acc_x,Acc_y,Acc_z,GSR_ohm,PPG_mv,time,trigger
0,3525940,2294,1321,1793,-4988.454545454563,0.7326007326007326,2025-03-25 11:48:31.008774
0,3526196,2294,1320,1793,-4988.454545454563,0.0,2025-03-25 11:48:31.008825
0,3526452,2294,1317,1794,-4988.454545454563,0.0,2025-03-25 11:48:31.022745
0,3526708,2292,1318,1796,-4988.454545454563,0.0,2025-03-25 11:48:31.028740
0,3526964,2293,1318,1795,-4988.454545454563,0.0,2025-03-25 11:48:31.042728
0,3527220,2295,1322,1797,-4988.454545454563,1.465201465201465,2025-03-25 11:48:31.042763
0,3527476,2297,1321,1796,-4988.454545454563,0.0,2025-03-25 11:48:31.049741
0,3527732,2296,1319,1795,-4988.454545454563,0.7326007326007326,2025-03-25 11:48:31.063729
0,3527988,2295,1317,1794,-43528.33333333349,1.465201465201465,2025-03-25 11:48:31.063764
0,3528244,2295,1319,1797,-43528.33333333349,0.7326007326007326,2025-03-25 11:48:31.063797
0,3528500,2293,1320,1795,-43528.33333333349,1.465201465201465,2025-03-25 11:48:31.079796
0,3528756,2292,1319,1797,-43528.33333333349,1.465201465201465,2025-03-25 11:48:31.093791
0,3529012,2294,1322,1793,-43528.33333333349,0.0,2025-03-25 11:48:31.093827
0,3529268,2296,1319,1797,-43528.33333333349,1.465201465201465,2025-03-25 11:48:31.093844
0,3529524,2296,1318,1793,-43528.33333333349,0.7326007326007326,2025-03-25 11:48:31.119847
0,3529780,2293,1321,1794,-43528.33333333349,0.0,2025-03-25 11:48:31.119895
0,3530036,2292,1320,1795,-43528.33333333349,0.0,2025-03-25 11:48:31.130783
0,3530292,2292,1321,1797,-43528.33333333349,0.7326007326007326,2025-03-25 11:48:31.130823
0,3530548,2295,1319,1795,-43528.33333333349,0.0,2025-03-25 11:48:31.139846
0,3530804,2296,1319,1794,-124090.90909090952,0.7326007326007326,2025-03-25 11:48:31.150681
0,3531060,2296,1318,1794,-124090.90909090952,0.0,2025-03-25 11:48:31.164791
0,3531316,2297,1320,1794,-124090.90909090952,0.0,2025-03-25 11:48:31.169819
0,3531572,2294,1320,1794,-124090.90909090952,0.0,2025-03-25 11:48:31.169857
0,3531828,2295,1320,1794,-124090.90909090952,0.0,2025-03-25 11:48:31.179633
0,3532084,2294,1319,1795,-124090.90909090952,0.0,2025-03-25 11:48:31.193834
0,3532340,2296,1320,1796,-124090.90909090952,0.0,2025-03-25 11:48:31.203759
0,3532596,2294,1318,1795,-124090.90909090952,0.0,2025-03-25 11:48:31.203798
0,3532852,2293,1321,1796,-124090.90909090952,0.0,2025-03-25 11:48:31.223778
0,3533108,2293,1322,1796,-124090.90909090952,0.0,2025-03-25 11:48:31.223814
0,3533364,2294,1322,1796,-124090.90909090952,0.7326007326007326,2025-03-25 11:48:31.233972
0,3533620,2295,1319,1796,-409500.00000000146,0.7326007326007326,2025-03-25 11:48:31.241852
0,3533876,2295,1319,1795,-409500.00000000146,1.465201465201465,2025-03-25 11:48:31.241889
0,3534132,2296,1319,1795,-409500.00000000146,0.0,2025-03-25 11:48:31.255774
0,3534388,2296,1321,1795,-409500.00000000146,0.7326007326007326,2025-03-25 11:48:31.264743
0,3534644,2295,1321,1795,-500500.0000000018,0.7326007326007326,2025-03-25 11:48:31.278858
0,3534900,2295,1319,1795,-409500.00000000146,0.7326007326007326,2025-03-25 11:48:31.284771
0,3535156,2294,1318,1794,-409500.00000000146,1.465201465201465,2025-03-25 11:48:31.290776
0,3535412,2296,1318,1797,-500500.0000000018,0.7326007326007326,2025-03-25 11:48:31.290813
0,3535668,2295,1318,1797,-409500.00000000146,0.7326007326007326,2025-03-25 11:48:31.304740
0,3535924,2293,1320,1796,-409500.00000000146,0.0,2025-03-25 11:48:31.313937
0,3536180,2294,1321,1794,-500500.0000000018,0.7326007326007326,2025-03-25 11:48:31.313974
0,3536436,2296,1320,1793,-643500.0000000023,1.465201465201465,2025-03-25 11:48:31.319760
0,3536692,2296,1319,1792,-409500.00000000146,1.465201465201465,2025-03-25 11:48:31.333776
0,3536948,2296,1320,1792,-409500.00000000146,0.7326007326007326,2025-03-25 11:48:31.342760
0,3537204,2293,1319,1793,-409500.00000000146,0.7326007326007326,2025-03-25 11:48:31.350806
0,3537460,2295,1322,1794,-500500.0000000018,0.0,2025-03-25 11:48:31.350891
0,3537716,2294,1319,1796,-409500.00000000146,0.7326007326007326,2025-03-25 11:48:31.360769
0,3537972,2294,1320,1798,-409500.00000000146,0.7326007326007326,2025-03-25 11:48:31.374775
0,3538228,2295,1321,1797,-500500.0000000018,0.7326007326007326,2025-03-25 11:48:31.383788
0,3538484,2296,1319,1796,-500500.0000000018,0.7326007326007326,2025-03-25 11:48:31.383825
0,3538740,2295,1318,1797,-409500.00000000146,0.7326007326007326,2025-03-25 11:48:31.383844
0,3538996,2294,1321,1794,-500500.0000000018,0.0,2025-03-25 11:48:31.398824
0,3539252,2294,1320,1795,-409500.00000000146,0.0,2025-03-25 11:48:31.410766
0,3539508,2294,1322,1797,-500500.0000000018,0.7326007326007326,2025-03-25 11:48:31.422774
0,3539764,2296,1319,1797,-409500.00000000146,0.7326007326007326,2025-03-25 11:48:31.427780
0,3540020,2295,1318,1796,-500500.0000000018,0.7326007326007326,2025-03-25 11:48:31.439746
0,3540276,2295,1317,1796,-500500.0000000018,0.7326007326007326,2025-03-25 11:48:31.444666
0,3540532,2293,1319,1797,-500500.0000000018,1.465201465201465,2025-03-25 11:48:31.447767
0,3540788,2294,1319,1798,-409500.00000000146,0.7326007326007326,2025-03-25 11:48:31.459737
0,3541044,2295,1321,1794,-409500.00000000146,1.465201465201465,2025-03-25 11:48:31.468852
0,3541300,2295,1319,1793,-409500.00000000146,0.7326007326007326,2025-03-25 11:48:31.468885
0,3541556,2296,1318,1793,-500500.0000000018,0.7326007326007326,2025-03-25 11:48:31.482630
0,3541812,2294,1317,1795,-409500.00000000146,0.7326007326007326,2025-03-25 11:48:31.487696
0,3542068,2291,1321,1796,-409500.00000000146,0.7326007326007326,2025-03-25 11:48:31.487721
0,3542324,2294,1319,1796,-500500.0000000018,0.0,2025-03-25 11:48:31.504700
0,3542580,2297,1320,1797,-500500.0000000018,0.0,2025-03-25 11:48:31.504730
0,3542836,2297,1320,1797,-500500.0000000018,0.0,2025-03-25 11:48:31.517748
0,3543092,2296,1320,1793,-409500.00000000146,0.0,2025-03-25 11:48:31.533721
0,3543348,2293,1320,1794,-409500.00000000146,0.7326007326007326,2025-03-25 11:48:31.545772
0,3543604,2294,1320,1795,-500500.0000000018,0.7326007326007326,2025-03-25 11:48:31.545795
0,3543860,2295,1320,1795,-409500.00000000146,0.7326007326007326,2025-03-25 11:48:31.552738
0,3544116,2295,1321,1795,-409500.00000000146,0.7326007326007326,2025-03-25 11:48:31.562709
0,3544372,2297,1318,1795,-409500.00000000146,0.7326007326007326,2025-03-25 11:48:31.568748
0,3544628,2296,1319,1798,-500500.0000000018,0.0,2025-03-25 11:48:31.568778
0,3544884,2296,1320,1796,-500500.0000000018,0.0,2025-03-25 11:48:31.583712
0,3545140,2294,1321,1796,-409500.00000000146,0.7326007326007326,2025-03-25 11:48:31.587726
0,3545396,2295,1320,1795,-500500.0000000018,0.7326007326007326,2025-03-25 11:48:31.596651
0,3545652,2296,1320,1798,-409500.00000000146,0.7326007326007326,2025-03-25 11:48:31.596684
0,3545908,2296,1317,1795,-409500.00000000146,1.465201465201465,2025-03-25 11:48:31.612713
0,3546164,2295,1321,1796,-500500.0000000018,1.465201465201465,2025-03-25 11:48:31.619800
0,3546420,2294,1320,1795,-500500.0000000018,0.0,2025-03-25 11:48:31.628730
0,3546676,2295,1320,1794,-500500.0000000018,0.7326007326007326,2025-03-25 11:48:31.628754
0,3546932,2292,1319,1794,-409500.00000000146,1.465201465201465,2025-03-25 11:48:31.642715
0,3547188,2295,1320,1794,-409500.00000000146,0.7326007326007326,2025-03-25 11:48:31.649726
0,3547444,2295,1319,1797,-500500.0000000018,0.7326007326007326,2025-03-25 11:48:31.662720
0,3547700,2294,1319,1796,-409500.00000000146,0.0,2025-03-25 11:48:31.671749
0,3547956,2293,1321,1797,-500500.0000000018,0.7326007326007326,2025-03-25 11:48:31.671774
0,3548212,2292,1321,1795,-409500.00000000146,0.7326007326007326,2025-03-25 11:48:31.684778
0,3548468,2294,1318,1797,-500500.0000000018,1.465201465201465,2025-03-25 11:48:31.692737
0,3548724,2295,1321,1795,-500500.0000000018,1.465201465201465,2025-03-25 11:48:31.704771
0,3548980,2294,1318,1799,-500500.0000000018,2.1978021978021975,2025-03-25 11:48:31.704803
0,3549236,2296,1320,1794,-409500.00000000146,0.7326007326007326,2025-03-25 11:48:31.718816
0,3549492,2295,1320,1792,-500500.0000000018,0.0,2025-03-25 11:48:31.718839
0,3549748,2294,1320,1794,-500500.0000000018,1.465201465201465,2025-03-25 11:48:31.731722
0,3550004,2293,1319,1796,-500500.0000000018,0.0,2025-03-25 11:48:31.744750
0,3550260,2295,1320,1794,-500500.0000000018,0.0,2025-03-25 11:48:31.744781
0,3550516,2295,1319,1794,-409500.00000000146,0.0,2025-03-25 11:48:31.763715
0,3550772,2294,1319,1795,-500500.0000000018,0.0,2025-03-25 11:48:31.763744
0,3551028,2293,1318,1795,-500500.0000000018,0.0,2025-03-25 11:48:31.763756
0,3551284,2295,1322,1796,-409500.00000000146,0.0,2025-03-25 11:48:31.782727
0,3551540,2295,1320,1796,-500500.0000000018,0.0,2025-03-25 11:48:31.789797
0,3551796,2295,1320,1794,-500500.0000000018,0.0,2025-03-25 11:48:31.789822
0,3552052,2295,1319,1798,-409500.00000000146,0.7326007326007326,2025-03-25 11:48:31.802704
0,3552308,2296,1321,1797,-409500.00000000146,0.7326007326007326,2025-03-25 11:48:31.807774
0,3552564,2294,1321,1795,-500500.0000000018,0.7326007326007326,2025-03-25 11:48:31.819751
0,3552820,2293,1319,1796,-409500.00000000146,0.7326007326007326,2025-03-25 11:48:31.819776
0,3553076,2294,1319,1794,-409500.00000000146,0.7326007326007326,2025-03-25 11:48:31.825713
0,3553332,2293,1319,1795,-409500.00000000146,0.7326007326007326,2025-03-25 11:48:31.838687
0,3553588,2295,1321,1795,-409500.00000000146,0.0,2025-03-25 11:48:31.851733
0,3553844,2295,1321,1796,-500500.0000000018,0.7326007326007326,2025-03-25 11:48:31.851773
0,3554100,2294,1320,1798,-500500.0000000018,1.465201465201465,2025-03-25 11:48:31.859732
0,3554356,2294,1318,1795,-500500.0000000018,0.7326007326007326,2025-03-25 11:48:31.868672
0,3554612,2294,1317,1795,-409500.00000000146,0.7326007326007326,2025-03-25 11:48:31.881727
0,3554868,2296,1321,1796,-500500.0000000018,1.465201465201465,2025-03-25 11:48:31.881752
0,3555124,2295,1320,1796,-500500.0000000018,1.465201465201465,2025-03-25 11:48:31.885732
0,3555380,2296,1320,1793,-409500.00000000146,0.0,2025-03-25 11:48:31.898782
0,3555636,2294,1320,1794,-500500.0000000018,1.465201465201465,2025-03-25 11:48:31.913742
0,3555892,2294,1317,1795,-409500.00000000146,1.465201465201465,2025-03-25 11:48:31.917748
0,3556148,2295,1321,1797,-500500.0000000018,0.7326007326007326,2025-03-25 11:48:31.917771
0,3556404,2293,1321,1797,-409500.00000000146,0.0,2025-03-25 11:48:31.930745
0,3556660,2294,1320,1796,-409500.00000000146,0.7326007326007326,2025-03-25 11:48:31.944735
0,3556916,2297,1318,1796,-500500.0000000018,0.7326007326007326,2025-03-25 11:48:31.952745
0,3557172,2295,1317,1797,-500500.0000000018,1.465201465201465,2025-03-25 11:48:31.952768
0,3557428,2293,1319,1794,-500500.0000000018,0.7326007326007326,2025-03-25 11:48:31.974808
0,3557684,2294,1322,1795,-409500.00000000146,0.7326007326007326,2025-03-25 11:48:31.974831
0,3557940,2294,1319,1795,-500500.0000000018,0.0,2025-03-25 11:48:31.980700
0,3558196,2296,1320,1795,-500500.0000000018,0.0,2025-03-25 11:48:31.993713
0,3558452,2292,1320,1792,-500500.0000000018,0.0,2025-03-25 11:48:31.997753
0,3558708,2293,1319,1797,-500500.0000000018,0.7326007326007326,2025-03-25 11:48:32.009729
0,3558964,2295,1318,1796,-409500.00000000146,0.0,2025-03-25 11:48:32.009754
0,3559220,2293,1320,1799,-500500.0000000018,1.465201465201465,2025-03-25 11:48:32.024759
0,3559476,2296,1319,1797,-500500.0000000018,0.7326007326007326,2025-03-25 11:48:32.032762
0,3559732,2295,1322,1795,-500500.0000000018,0.7326007326007326,2025-03-25 11:48:32.038836
0,3559988,2296,1319,1796,-409500.00000000146,0.7326007326007326,2025-03-25 11:48:32.038860
0,3560244,2296,1317,1798,-500500.0000000018,0.7326007326007326,2025-03-25 11:48:32.051735
0,3560500,2294,1320,1794,-500500.0000000018,0.0,2025-03-25 11:48:32.066709
0,3560756,2296,1322,1797,-500500.0000000018,0.7326007326007326,2025-03-25 11:48:32.066734
0,3561012,2295,1320,1795,-500500.0000000018,0.0,2025-03-25 11:48:32.069723
0,3561268,2296,1318,1795,-409500.00000000146,0.0,2025-03-25 11:48:32.078754
0,3561524,2293,1319,1794,-409500.00000000146,0.7326007326007326,2025-03-25 11:48:32.090733
0,3561780,2296,1319,1795,-500500.0000000018,0.7326007326007326,2025-03-25 11:48:32.107712
0,3562036,2295,1319,1797,-409500.00000000146,0.7326007326007326,2025-03-25 11:48:32.107735
0,3562292,2295,1321,1794,-409500.00000000146,0.7326007326007326,2025-03-25 11:48:32.109724
0,3562548,2296,1320,1795,-409500.00000000146,0.7326007326007326,2025-03-25 11:48:32.119701
0,3562804,2298,1320,1794,-500500.0000000018,1.465201465201465,2025-03-25 11:48:32.138742
0,3563060,2293,1319,1798,-500500.0000000018,0.7326007326007326,2025-03-25 11:48:32.138770
0,3563316,2294,1319,1795,-409500.00000000146,0.7326007326007326,2025-03-25 11:48:32.144773
0,3563572,2293,1322,1797,-500500.0000000018,1.465201465201465,2025-03-25 11:48:32.147770
0,3563828,2295,1320,1796,-409500.00000000146,0.7326007326007326,2025-03-25 11:48:32.155730
0,3564084,2295,1321,1796,-500500.0000000018,2.1978021978021975,2025-03-25 11:48:32.168715
0,3564340,2296,1319,1795,-500500.0000000018,1.465201465201465,2025-03-25 11:48:32.168741
0,3564596,2296,1318,1794,-409500.00000000146,1.465201465201465,2025-03-25 11:48:32.179722
0,3564852,2295,1321,1796,-500500.0000000018,1.465201465201465,2025-03-25 11:48:32.188761
0,3565108,2295,1320,1795,-500500.0000000018,1.465201465201465,2025-03-25 11:48:32.202752
0,3565364,2295,1319,1796,-409500.00000000146,0.7326007326007326,2025-03-25 11:48:32.207706
0,3565620,2294,1319,1796,-409500.00000000146,0.7326007326007326,2025-03-25 11:48:32.219695
0,3565876,2298,1321,1795,-409500.00000000146,0.7326007326007326,2025-03-25 11:48:32.219720
0,3566132,2294,1320,1796,-500500.0000000018,0.7326007326007326,2025-03-25 11:48:32.234631
0,3566388,2297,1320,1796,-409500.00000000146,0.7326007326007326,2025-03-25 11:48:32.236721
0,3566644,2294,1318,1797,-409500.00000000146,0.7326007326007326,2025-03-25 11:48:32.236745
0,3566900,2296,1319,1796,-409500.00000000146,0.7326007326007326,2025-03-25 11:48:32.257715
0,3567156,2295,1319,1797,-500500.0000000018,0.7326007326007326,2025-03-25 11:48:32.257757
0,3567412,2294,1321,1797,-409500.00000000146,0.0,2025-03-25 11:48:32.265726
0,3567668,2294,1321,1795,-409500.00000000146,1.465201465201465,2025-03-25 11:48:32.289725
0,3567924,2296,1320,1795,-409500.00000000146,0.7326007326007326,2025-03-25 11:48:32.292692
0,3568180,2295,1319,1796,-409500.00000000146,0.7326007326007326,2025-03-25 11:48:32.292730
0,3568436,2295,1320,1797,-409500.00000000146,0.7326007326007326,2025-03-25 11:48:32.299747
0,3568692,2294,1319,1797,-500500.0000000018,1.465201465201465,2025-03-25 11:48:32.308701
0,3568948,2295,1322,1797,-500500.0000000018,1.465201465201465,2025-03-25 11:48:32.308735
0,3569204,2295,1319,1794,-409500.00000000146,0.0,2025-03-25 11:48:32.319723
0,3569460,2294,1318,1798,-500500.0000000018,0.0,2025-03-25 11:48:32.333727
0,3569716,2295,1319,1799,-500500.0000000018,0.0,2025-03-25 11:48:32.339713
0,3569972,2295,1318,1798,-409500.00000000146,0.0,2025-03-25 11:48:32.352688
0,3570228,2295,1322,1798,-409500.00000000146,0.0,2025-03-25 11:48:32.352723
0,3570484,2295,1322,1798,-500500.0000000018,0.0,2025-03-25 11:48:32.361756
0,3570740,2294,1319,1797,-500500.0000000018,0.0,2025-03-25 11:48:32.375739
0,3570996,2294,1319,1794,-409500.00000000146,0.7326007326007326,2025-03-25 11:48:32.391630
0,3571252,2294,1321,1797,-409500.00000000146,0.0,2025-03-25 11:48:32.391662
0,3571508,2294,1322,1796,-500500.0000000018,0.0,2025-03-25 11:48:32.399709
0,3571764,2295,1322,1796,-409500.00000000146,0.7326007326007326,2025-03-25 11:48:32.404577
0,3572020,2293,1320,1796,-500500.0000000018,1.465201465201465,2025-03-25 11:48:32.414708
0,3572276,2297,1320,1796,-409500.00000000146,1.465201465201465,2025-03-25 11:48:32.427690
0,3572532,2296,1318,1796,-409500.00000000146,1.465201465201465,2025-03-25 11:48:32.427723
0,3572788,2295,1319,1797,-409500.00000000146,0.7326007326007326,2025-03-25 11:48:32.442685
0,3573044,2293,1320,1796,-409500.00000000146,0.7326007326007326,2025-03-25 11:48:32.442716
0,3573300,2295,1321,1796,-500500.0000000018,0.0,2025-03-25 11:48:32.448822
0,3573556,2297,1320,1797,-500500.0000000018,0.7326007326007326,2025-03-25 11:48:32.456713
0,3573812,2294,1317,1792,-500500.0000000018,1.465201465201465,2025-03-25 11:48:32.471591
0,3574068,2294,1318,1794,-500500.0000000018,0.7326007326007326,2025-03-25 11:48:32.471626
0,3574324,2293,1319,1794,-500500.0000000018,0.7326007326007326,2025-03-25 11:48:32.477666
0,3574580,2295,1321,1794,-500500.0000000018,0.0,2025-03-25 11:48:32.491674
0,3574836,2297,1320,1796,-409500.00000000146,0.0,2025-03-25 11:48:32.496683
0,3575092,2295,1317,1796,-409500.00000000146,0.0,2025-03-25 11:48:32.507684
0,3575348,2294,1319,1795,-500500.0000000018,0.0,2025-03-25 11:48:32.507716
0,3575604,2295,1320,1796,-409500.00000000146,0.0,2025-03-25 11:48:32.521659
0,3575860,2293,1319,1796,-500500.0000000018,0.7326007326007326,2025-03-25 11:48:32.531697
0,3576116,2295,1320,1795,-409500.00000000146,0.0,2025-03-25 11:48:32.548584
0,3576372,2295,1322,1796,-500500.0000000018,0.7326007326007326,2025-03-25 11:48:32.548616
0,3576628,2296,1318,1794,-409500.00000000146,0.0,2025-03-25 11:48:32.561672
0,3576884,2295,1318,1794,-409500.00000000146,0.7326007326007326,2025-03-25 11:48:32.561705
0,3577140,2293,1318,1795,-409500.00000000146,0.7326007326007326,2025-03-25 11:48:32.573663
0,3577396,2292,1320,1799,-500500.0000000018,0.0,2025-03-25 11:48:32.573704
0,3577652,2296,1322,1798,-409500.00000000146,0.7326007326007326,2025-03-25 11:48:32.581703
0,3577908,2297,1320,1796,-409500.00000000146,0.7326007326007326,2025-03-25 11:48:32.592709
0,3578164,2296,1319,1795,-500500.0000000018,1.465201465201465,2025-03-25 11:48:32.598750
0,3578420,2293,1320,1797,-500500.0000000018,1.465201465201465,2025-03-25 11:48:32.598789
0,3578676,2292,1318,1797,-500500.0000000018,0.0,2025-03-25 11:48:32.614680
0,3578932,2294,1321,1795,-500500.0000000018,1.465201465201465,2025-03-25 11:48:32.622780
0,3579188,2295,1321,1793,-500500.0000000018,0.7326007326007326,2025-03-25 11:48:32.633674
0,3579444,2294,1319,1795,-500500.0000000018,0.7326007326007326,2025-03-25 11:48:32.633709
0,3579700,2297,1321,1796,-409500.00000000146,0.7326007326007326,2025-03-25 11:48:32.636734
0,3579956,2295,1320,1796,-500500.0000000018,0.0,2025-03-25 11:48:32.647698
0,3580212,2294,1320,1797,-409500.00000000146,0.7326007326007326,2025-03-25 11:48:32.661667
0,3580468,2293,1323,1801,-500500.0000000018,0.7326007326007326,2025-03-25 11:48:32.676653
0,3580724,2296,1318,1798,-409500.00000000146,0.0,2025-03-25 11:48:32.676685
0,3580980,2294,1315,1797,-500500.0000000018,0.0,2025-03-25 11:48:32.676716
0,3581236,2298,1319,1795,-409500.00000000146,0.7326007326007326,2025-03-25 11:48:32.692780
0,3581492,2296,1321,1796,-500500.0000000018,0.7326007326007326,2025-03-25 11:48:32.707849
0,3581748,2296,1322,1794,-500500.0000000018,0.7326007326007326,2025-03-25 11:48:32.707882
0,3582004,2295,1320,1796,-409500.00000000146,0.7326007326007326,2025-03-25 11:48:32.722809
0,3582260,2295,1319,1794,-500500.0000000018,0.7326007326007326,2025-03-25 11:48:32.722840
0,3582516,2295,1318,1792,-409500.00000000146,1.465201465201465,2025-03-25 11:48:32.726674
0,3582772,2294,1318,1796,-409500.00000000146,1.465201465201465,2025-03-25 11:48:32.737724
0,3583028,2295,1319,1796,-409500.00000000146,0.0,2025-03-25 11:48:32.752653
0,3583284,2293,1319,1794,-409500.00000000146,1.465201465201465,2025-03-25 11:48:32.757693
0,3583540,2294,1322,1796,-500500.0000000018,1.465201465201465,2025-03-25 11:48:32.757724
0,3583796,2295,1318,1798,-409500.00000000146,0.0,2025-03-25 11:48:32.771678
0,3584052,2295,1318,1797,-500500.0000000018,1.465201465201465,2025-03-25 11:48:32.777709
0,3584308,2297,1317,1792,-409500.00000000146,0.7326007326007326,2025-03-25 11:48:32.795302
0,3584564,2294,1319,1794,-500500.0000000018,1.465201465201465,2025-03-25 11:48:32.795342
0,3584820,2294,1319,1795,-409500.00000000146,1.465201465201465,2025-03-25 11:48:32.805820
0,3585076,2294,1321,1796,-409500.00000000146,0.0,2025-03-25 11:48:32.808792
0,3585332,2295,1321,1796,-409500.00000000146,0.0,2025-03-25 11:48:32.817691
0,3585588,2295,1320,1793,-500500.0000000018,0.0,2025-03-25 11:48:32.817732
0,3585844,2295,1317,1794,-409500.00000000146,0.0,2025-03-25 11:48:32.829663
0,3586100,2296,1318,1796,-409500.00000000146,0.0,2025-03-25 11:48:32.838653
0,3586356,2294,1319,1796,-409500.00000000146,0.7326007326007326,2025-03-25 11:48:32.847820
0,3586612,2296,1321,1798,-500500.0000000018,0.7326007326007326,2025-03-25 11:48:32.847852
0,3586868,2296,1320,1796,-500500.0000000018,0.7326007326007326,2025-03-25 11:48:32.862785
0,3587124,2296,1319,1793,-500500.0000000018,0.7326007326007326,2025-03-25 11:48:32.871773
0,3587380,2295,1320,1795,-500500.0000000018,0.7326007326007326,2025-03-25 11:48:32.883756
0,3587636,2294,1321,1796,-500500.0000000018,0.7326007326007326,2025-03-25 11:48:32.883786
0,3587892,2294,1320,1796,-500500.0000000018,0.7326007326007326,2025-03-25 11:48:32.883804
0,3588148,2295,1320,1795,-500500.0000000018,0.7326007326007326,2025-03-25 11:48:32.898774
0,3588404,2295,1319,1797,-409500.00000000146,1.465201465201465,2025-03-25 11:48:32.912782
0,3588660,2294,1317,1795,-500500.0000000018,1.465201465201465,2025-03-25 11:48:32.918795
0,3588916,2293,1319,1795,-409500.00000000146,2.1978021978021975,2025-03-25 11:48:32.918828
0,3589172,2294,1320,1797,-500500.0000000018,0.0,2025-03-25 11:48:32.931725
0,3589428,2293,1320,1796,-409500.00000000146,0.0,2025-03-25 11:48:32.939720
0,3589684,2295,1321,1794,-500500.0000000018,0.0,2025-03-25 11:48:32.953730
0,3589940,2296,1320,1795,-500500.0000000018,0.0,2025-03-25 11:48:32.953762
0,3590196,2296,1320,1793,-409500.00000000146,0.0,2025-03-25 11:48:32.969836
0,3590452,2296,1320,1794,-409500.00000000146,0.7326007326007326,2025-03-25 11:48:32.969866
0,3590708,2294,1321,1797,-500500.0000000018,0.0,2025-03-25 11:48:32.978794
0,3590964,2295,1321,1795,-409500.00000000146,0.0,2025-03-25 11:48:32.987698
0,3591220,2296,1319,1796,-409500.00000000146,0.0,2025-03-25 11:48:32.987728
0,3591476,2294,1319,1793,-409500.00000000146,0.0,2025-03-25 11:48:33.004653
0,3591732,2294,1319,1795,-500500.0000000018,0.0,2025-03-25 11:48:33.004696
0,3591988,2296,1320,1794,-409500.00000000146,0.0,2025-03-25 11:48:33.022684
0,3592244,2294,1319,1796,-409500.00000000146,0.7326007326007326,2025-03-25 11:48:33.028656
0,3592500,2294,1322,1797,-409500.00000000146,1.465201465201465,2025-03-25 11:48:33.043674
0,3592756,2295,1321,1796,-500500.0000000018,1.465201465201465,2025-03-25 11:48:33.043719
0,3593012,2297,1318,1794,-409500.00000000146,0.0,2025-03-25 11:48:33.048709
0,3593268,2295,1318,1796,-500500.0000000018,1.465201465201465,2025-03-25 11:48:33.059677
0,3593524,2296,1320,1796,-500500.0000000018,0.0,2025-03-25 11:48:33.067684
0,3593780,2294,1322,1797,-409500.00000000146,1.465201465201465,2025-03-25 11:48:33.067715
0,3594036,2295,1319,1796,-500500.0000000018,0.7326007326007326,2025-03-25 11:48:33.077714
0,3594292,2296,1318,1795,-500500.0000000018,0.7326007326007326,2025-03-25 11:48:33.089950
0,3594548,2295,1318,1796,-500500.0000000018,1.465201465201465,2025-03-25 11:48:33.096710
0,3594804,2295,1318,1798,-500500.0000000018,1.465201465201465,2025-03-25 11:48:33.096745
0,3595060,2294,1320,1797,-500500.0000000018,0.7326007326007326,2025-03-25 11:48:33.112781
0,3595316,2297,1321,1796,-409500.00000000146,0.7326007326007326,2025-03-25 11:48:33.119950
0,3595572,2295,1320,1794,-409500.00000000146,1.465201465201465,2025-03-25 11:48:33.128702
0,3595828,2293,1319,1793,-500500.0000000018,1.465201465201465,2025-03-25 11:48:33.139682
0,3596084,2294,1318,1794,-409500.00000000146,0.7326007326007326,2025-03-25 11:48:33.139726
0,3596340,2295,1319,1794,-409500.00000000146,0.0,2025-03-25 11:48:33.150741
0,3596596,2294,1321,1796,-409500.00000000146,0.0,2025-03-25 11:48:33.158941
0,3596852,2293,1323,1796,-500500.0000000018,0.0,2025-03-25 11:48:33.172306
0,3597108,2294,1320,1794,-500500.0000000018,0.0,2025-03-25 11:48:33.172341
0,3597364,2297,1317,1797,-409500.00000000146,0.7326007326007326,2025-03-25 11:48:33.181821
0,3597620,2294,1316,1797,-409500.00000000146,0.7326007326007326,2025-03-25 11:48:33.194821
0,3597876,2292,1318,1797,-500500.0000000018,0.0,2025-03-25 11:48:33.198696
0,3598132,2295,1321,1796,-409500.00000000146,0.7326007326007326,2025-03-25 11:48:33.198729
0,3598388,2296,1322,1795,-409500.00000000146,0.0,2025-03-25 11:48:33.219695
0,3598644,2298,1320,1797,-409500.00000000146,0.7326007326007326,2025-03-25 11:48:33.219727
0,3598900,2294,1319,1797,-409500.00000000146,1.465201465201465,2025-03-25 11:48:33.240698
0,3599156,2295,1321,1795,-500500.0000000018,0.0,2025-03-25 11:48:33.246663
0,3599412,2294,1322,1798,-409500.00000000146,0.7326007326007326,2025-03-25 11:48:33.246695
0,3599668,2293,1323,1795,-500500.0000000018,2.1978021978021975,2025-03-25 11:48:33.261729
0,3599924,2294,1321,1793,-409500.00000000146,1.465201465201465,2025-03-25 11:48:33.261760
0,3600180,2297,1318,1795,-500500.0000000018,1.465201465201465,2025-03-25 11:48:33.271682
0,3600436,2294,1318,1795,-409500.00000000146,0.7326007326007326,2025-03-25 11:48:33.288772
0,3600692,2292,1320,1796,-500500.0000000018,1.465201465201465,2025-03-25 11:48:33.294697
0,3600948,2295,1321,1793,-500500.0000000018,0.7326007326007326,2025-03-25 11:48:33.294728
0,3601204,2295,1320,1795,-500500.0000000018,0.7326007326007326,2025-03-25 11:48:33.302697
0,3601460,2297,1317,1795,-409500.00000000146,0.7326007326007326,2025-03-25 11:48:33.316650
0,3601716,2296,1318,1795,-500500.0000000018,0.7326007326007326,2025-03-25 11:48:33.321657
0,3601972,2294,1320,1798,-409500.00000000146,1.465201465201465,2025-03-25 11:48:33.321687
0,3602228,2295,1320,1796,-409500.00000000146,1.465201465201465,2025-03-25 11:48:33.328584
0,3602484,2296,1319,1796,-500500.0000000018,0.7326007326007326,2025-03-25 11:48:33.342660
0,3602740,2296,1319,1795,-409500.00000000146,1.465201465201465,2025-03-25 11:48:33.348679
0,3602996,2295,1318,1793,-500500.0000000018,1.465201465201465,2025-03-25 11:48:33.348710
0,3603252,2294,1317,1796,-409500.00000000146,0.7326007326007326,2025-03-25 11:48:33.362687
0,3603508,2295,1319,1794,-409500.00000000146,0.7326007326007326,2025-03-25 11:48:33.367664
0,3603764,2294,1320,1794,-500500.0000000018,1.465201465201465,2025-03-25 11:48:33.389707
0,3604020,2294,1321,1797,-500500.0000000018,1.465201465201465,2025-03-25 11:48:33.402657
0,3604276,2297,1319,1797,-409500.00000000146,1.465201465201465,2025-03-25 11:48:33.402699
0,3604532,2297,1320,1794,-409500.00000000146,0.0,2025-03-25 11:48:33.402716
0,3604788,2295,1319,1796,-409500.00000000146,0.7326007326007326,2025-03-25 11:48:33.414709
0,3605044,2294,1321,1797,-500500.0000000018,0.0,2025-03-25 11:48:33.423747
0,3605300,2296,1321,1795,-500500.0000000018,0.7326007326007326,2025-03-25 11:48:33.423778
0,3605556,2297,1321,1793,-500500.0000000018,0.0,2025-03-25 11:48:33.429898
0,3605812,2295,1319,1795,-409500.00000000146,0.0,2025-03-25 11:48:33.442701
0,3606068,2295,1319,1795,-409500.00000000146,0.0,2025-03-25 11:48:33.447758
0,3606324,2295,1320,1795,-500500.0000000018,0.0,2025-03-25 11:48:33.459663
0,3606580,2293,1320,1796,-409500.00000000146,0.0,2025-03-25 11:48:33.459696
0,3606836,2295,1320,1797,-409500.00000000146,0.7326007326007326,2025-03-25 11:48:33.466688
0,3607092,2295,1321,1796,-409500.00000000146,1.465201465201465,2025-03-25 11:48:33.478767
0,3607348,2297,1319,1795,-409500.00000000146,0.7326007326007326,2025-03-25 11:48:33.493710
0,3607604,2295,1319,1796,-500500.0000000018,0.7326007326007326,2025-03-25 11:48:33.493741
0,3607860,2294,1320,1798,-409500.00000000146,0.0,2025-03-25 11:48:33.511626
0,3608116,2296,1321,1798,-500500.0000000018,1.465201465201465,2025-03-25 11:48:33.511670
0,3608372,2296,1320,1795,-500500.0000000018,0.7326007326007326,2025-03-25 11:48:33.516655
0,3608628,2294,1320,1795,-409500.00000000146,0.7326007326007326,2025-03-25 11:48:33.527714
0,3608884,2296,1317,1796,-409500.00000000146,0.0,2025-03-25 11:48:33.542713
0,3609140,2293,1320,1795,-409500.00000000146,1.465201465201465,2025-03-25 11:48:33.542745
0,3609396,2293,1322,1795,-409500.00000000146,0.7326007326007326,2025-03-25 11:48:33.547730
0,3609652,2296,1320,1797,-500500.0000000018,1.465201465201465,2025-03-25 11:48:33.559634
0,3609908,2295,1321,1795,-409500.00000000146,1.465201465201465,2025-03-25 11:48:33.566694
0,3610164,2295,1318,1796,-500500.0000000018,0.7326007326007326,2025-03-25 11:48:33.566725
0,3610420,2294,1320,1793,-500500.0000000018,0.7326007326007326,2025-03-25 11:48:33.582721
0,3610676,2295,1320,1795,-500500.0000000018,0.7326007326007326,2025-03-25 11:48:33.587774
0,3610932,2295,1321,1797,-409500.00000000146,1.465201465201465,2025-03-25 11:48:33.603699
0,3611188,2295,1320,1796,-409500.00000000146,0.7326007326007326,2025-03-25 11:48:33.603730
0,3611444,2296,1319,1795,-409500.00000000146,0.7326007326007326,2025-03-25 11:48:33.609714
0,3611700,2295,1318,1796,-500500.0000000018,0.7326007326007326,2025-03-25 11:48:33.622696
0,3611956,2293,1319,1794,-409500.00000000146,0.0,2025-03-25 11:48:33.627668
0,3612212,2292,1320,1796,-500500.0000000018,0.0,2025-03-25 11:48:33.647022
0,3612468,2296,1321,1794,-409500.00000000146,0.7326007326007326,2025-03-25 11:48:33.647069
0,3612724,2296,1318,1797,-500500.0000000018,0.7326007326007326,2025-03-25 11:48:33.647090
0,3612980,2296,1320,1793,-500500.0000000018,0.7326007326007326,2025-03-25 11:48:33.664662
0,3613236,2296,1317,1793,-500500.0000000018,1.465201465201465,2025-03-25 11:48:33.667661
0,3613492,2295,1319,1796,-409500.00000000146,0.0,2025-03-25 11:48:33.667705
0,3613748,2293,1320,1796,-409500.00000000146,0.0,2025-03-25 11:48:33.679701
0,3614004,2293,1321,1795,-409500.00000000146,0.0,2025-03-25 11:48:33.688703
0,3614260,2296,1320,1796,-500500.0000000018,0.0,2025-03-25 11:48:33.702708
0,3614516,2296,1318,1796,-409500.00000000146,0.0,2025-03-25 11:48:33.718788
0,3614772,2297,1321,1796,-409500.00000000146,0.0,2025-03-25 11:48:33.718820
0,3615028,2294,1320,1797,-500500.0000000018,0.0,2025-03-25 11:48:33.721661
0,3615284,2294,1318,1795,-409500.00000000146,0.0,2025-03-25 11:48:33.734765
0,3615540,2295,1321,1796,-500500.0000000018,0.0,2025-03-25 11:48:33.741727
0,3615796,2295,1321,1795,-409500.00000000146,0.0,2025-03-25 11:48:33.741758
0,3616052,2294,1319,1797,-409500.00000000146,0.0,2025-03-25 11:48:33.762635
0,3616308,2294,1323,1795,-500500.0000000018,0.7326007326007326,2025-03-25 11:48:33.762669
0,3616564,2293,1321,1794,-409500.00000000146,0.7326007326007326,2025-03-25 11:48:33.771718
0,3616820,2293,1321,1794,-500500.0000000018,0.7326007326007326,2025-03-25 11:48:33.781653
0,3617076,2294,1320,1796,-409500.00000000146,0.7326007326007326,2025-03-25 11:48:33.791724
0,3617332,2295,1318,1797,-500500.0000000018,0.7326007326007326,2025-03-25 11:48:33.791758
0,3617588,2294,1320,1795,-409500.00000000146,0.0,2025-03-25 11:48:33.799633
0,3617844,2295,1319,1792,-500500.0000000018,0.7326007326007326,2025-03-25 11:48:33.811890
0,3618100,2294,1319,1794,-409500.00000000146,0.7326007326007326,2025-03-25 11:48:33.819101
0,3618356,2296,1321,1796,-500500.0000000018,0.7326007326007326,2025-03-25 11:48:33.819147
0,3618612,2296,1319,1796,-500500.0000000018,1.465201465201465,2025-03-25 11:48:33.827778
0,3618868,2295,1321,1799,-409500.00000000146,0.7326007326007326,2025-03-25 11:48:33.841714
0,3619124,2295,1318,1796,-409500.00000000146,0.7326007326007326,2025-03-25 11:48:33.852945
0,3619380,2295,1318,1797,-409500.00000000146,0.7326007326007326,2025-03-25 11:48:33.852978
0,3619636,2296,1320,1798,-500500.0000000018,0.7326007326007326,2025-03-25 11:48:33.863793
0,3619892,2295,1320,1797,-409500.00000000146,2.1978021978021975,2025-03-25 11:48:33.868717
0,3620148,2296,1322,1796,-409500.00000000146,0.0,2025-03-25 11:48:33.881726
0,3620404,2296,1322,1794,-500500.0000000018,0.7326007326007326,2025-03-25 11:48:33.886671
0,3620660,2296,1320,1795,-500500.0000000018,0.7326007326007326,2025-03-25 11:48:33.886705
0,3620916,2295,1322,1795,-500500.0000000018,1.465201465201465,2025-03-25 11:48:33.902781
0,3621172,2293,1321,1795,-409500.00000000146,0.0,2025-03-25 11:48:33.907811
0,3621428,2294,1320,1794,-500500.0000000018,0.0,2025-03-25 11:48:33.923827
0,3621684,2296,1320,1795,-409500.00000000146,0.0,2025-03-25 11:48:33.923858
0,3621940,2295,1320,1797,-409500.00000000146,0.0,2025-03-25 11:48:33.928812
0,3622196,2296,1318,1795,-500500.0000000018,0.0,2025-03-25 11:48:33.941801
0,3622452,2295,1318,1795,-409500.00000000146,0.0,2025-03-25 11:48:33.950811
0,3622708,2294,1320,1797,-500500.0000000018,0.0,2025-03-25 11:48:33.950842
0,3622964,2294,1320,1793,-500500.0000000018,0.7326007326007326,2025-03-25 11:48:33.966703
0,3623220,2294,1320,1795,-500500.0000000018,0.7326007326007326,2025-03-25 11:48:33.966736
0,3623476,2294,1319,1795,-500500.0000000018,0.7326007326007326,2025-03-25 11:48:33.977661
0,3623732,2297,1320,1795,-409500.00000000146,0.0,2025-03-25 11:48:33.986781
0,3623988,2296,1317,1795,-409500.00000000146,1.465201465201465,2025-03-25 11:48:33.997787
0,3624244,2295,1320,1798,-409500.00000000146,0.7326007326007326,2025-03-25 11:48:34.006772
0,3624500,2293,1321,1797,-409500.00000000146,0.7326007326007326,2025-03-25 11:48:34.006814
0,3624756,2293,1320,1794,-409500.00000000146,0.0,2025-03-25 11:48:34.026794
0,3625012,2295,1320,1793,-500500.0000000018,1.465201465201465,2025-03-25 11:48:34.033766
0,3625268,2295,1319,1796,-500500.0000000018,0.0,2025-03-25 11:48:34.033798
0,3625524,2295,1318,1795,-500500.0000000018,0.7326007326007326,2025-03-25 11:48:34.048737
0,3625780,2295,1322,1794,-409500.00000000146,1.465201465201465,2025-03-25 11:48:34.048767
0,3626036,2296,1321,1797,-500500.0000000018,0.7326007326007326,2025-03-25 11:48:34.063678
0,3626292,2294,1321,1794,-409500.00000000146,0.7326007326007326,2025-03-25 11:48:34.063708
0,3626548,2296,1319,1796,-500500.0000000018,0.0,2025-03-25 11:48:34.069669
0,3626804,2296,1317,1794,-409500.00000000146,0.7326007326007326,2025-03-25 11:48:34.083653
0,3627060,2295,1319,1793,-409500.00000000146,1.465201465201465,2025-03-25 11:48:34.094676
0,3627316,2294,1321,1796,-409500.00000000146,1.465201465201465,2025-03-25 11:48:34.103719
0,3627572,2294,1319,1796,-500500.0000000018,0.7326007326007326,2025-03-25 11:48:34.103749
0,3627828,2295,1319,1796,-409500.00000000146,0.7326007326007326,2025-03-25 11:48:34.113647
0,3628084,2296,1321,1792,-500500.0000000018,1.465201465201465,2025-03-25 11:48:34.126689
0,3628340,2296,1317,1795,-500500.0000000018,0.7326007326007326,2025-03-25 11:48:34.143639
0,3628596,2295,1319,1798,-500500.0000000018,0.0,2025-03-25 11:48:34.143683
0,3628852,2296,1320,1799,-500500.0000000018,0.0,2025-03-25 11:48:34.143705
0,3629108,2294,1321,1796,-409500.00000000146,0.0,2025-03-25 11:48:34.153799
0,3629364,2295,1319,1798,-409500.00000000146,0.0,2025-03-25 11:48:34.158637
0,3629620,2292,1320,1794,-409500.00000000146,0.0,2025-03-25 11:48:34.171729
0,3629876,2295,1321,1794,-500500.0000000018,0.0,2025-03-25 11:48:34.171782
0,3630132,2295,1320,1794,-409500.00000000146,0.0,2025-03-25 11:48:34.178875
0,3630388,2293,1320,1795,-500500.0000000018,0.0,2025-03-25 11:48:34.191870
0,3630644,2294,1320,1796,-409500.00000000146,0.0,2025-03-25 11:48:34.202771
0,3630900,2294,1320,1798,-500500.0000000018,0.0,2025-03-25 11:48:34.202802
0,3631156,2296,1318,1795,-409500.00000000146,0.0,2025-03-25 11:48:34.214750
0,3631412,2295,1317,1798,-409500.00000000146,0.0,2025-03-25 11:48:34.218659
0,3631668,2294,1321,1796,-500500.0000000018,0.0,2025-03-25 11:48:34.227816
0,3631924,2294,1321,1793,-500500.0000000018,1.465201465201465,2025-03-25 11:48:34.239811
0,3632180,2294,1321,1795,-409500.00000000146,0.7326007326007326,2025-03-25 11:48:34.239842
0,3632436,2295,1320,1795,-409500.00000000146,0.0,2025-03-25 11:48:34.256752
0,3632692,2295,1319,1795,-500500.0000000018,1.465201465201465,2025-03-25 11:48:34.256782
0,3632948,2295,1320,1793,-500500.0000000018,1.465201465201465,2025-03-25 11:48:34.269824
0,3633204,2294,1319,1797,-500500.0000000018,0.7326007326007326,2025-03-25 11:48:34.278750
0,3633460,2296,1319,1795,-409500.00000000146,0.7326007326007326,2025-03-25 11:48:34.281761
0,3633716,2294,1320,1796,-409500.00000000146,0.0,2025-03-25 11:48:34.295728
0,3633972,2296,1322,1794,-409500.00000000146,1.465201465201465,2025-03-25 11:48:34.303810
0,3634228,2294,1319,1794,-500500.0000000018,1.465201465201465,2025-03-25 11:48:34.308692
0,3634484,2294,1318,1794,-500500.0000000018,1.465201465201465,2025-03-25 11:48:34.308724
0,3634740,2293,1319,1792,-409500.00000000146,1.465201465201465,2025-03-25 11:48:34.319798
0,3634996,2294,1322,1795,-409500.00000000146,0.0,2025-03-25 11:48:34.328730
0,3635252,2294,1321,1795,-500500.0000000018,0.7326007326007326,2025-03-25 11:48:34.337837
0,3635508,2296,1319,1796,-500500.0000000018,0.7326007326007326,2025-03-25 11:48:34.351813
0,3635764,2295,1319,1795,-500500.0000000018,0.7326007326007326,2025-03-25 11:48:34.351842
0,3636020,2296,1319,1796,-500500.0000000018,0.7326007326007326,2025-03-25 11:48:34.366785
0,3636276,2295,1318,1796,-409500.00000000146,0.0,2025-03-25 11:48:34.366815
0,3636532,2294,1320,1796,-500500.0000000018,0.0,2025-03-25 11:48:34.381794
0,3636788,2292,1321,1797,-409500.00000000146,0.0,2025-03-25 11:48:34.381823
0,3637044,2295,1320,1795,-409500.00000000146,1.465201465201465,2025-03-25 11:48:34.388784
0,3637300,2296,1319,1794,-409500.00000000146,1.465201465201465,2025-03-25 11:48:34.401596
0,3637556,2296,1318,1794,-409500.00000000146,0.7326007326007326,2025-03-25 11:48:34.413692
0,3637812,2294,1318,1795,-500500.0000000018,0.7326007326007326,2025-03-25 11:48:34.418571
0,3638068,2295,1319,1793,-409500.00000000146,1.465201465201465,2025-03-25 11:48:34.418604
0,3638324,2295,1322,1795,-409500.00000000146,1.465201465201465,2025-03-25 11:48:34.431764
0,3638580,2295,1319,1796,-409500.00000000146,0.7326007326007326,2025-03-25 11:48:34.440720
0,3638836,2295,1318,1795,-500500.0000000018,0.7326007326007326,2025-03-25 11:48:34.453731
0,3639092,2296,1318,1796,-500500.0000000018,0.0,2025-03-25 11:48:34.453762
0,3639348,2295,1319,1795,-409500.00000000146,0.7326007326007326,2025-03-25 11:48:34.472791
0,3639604,2294,1321,1794,-409500.00000000146,0.0,2025-03-25 11:48:34.472824
0,3639860,2294,1321,1797,-500500.0000000018,1.465201465201465,2025-03-25 11:48:34.492662
0,3640116,2297,1320,1796,-500500.0000000018,0.0,2025-03-25 11:48:34.494640
0,3640372,2298,1319,1795,-409500.00000000146,8.79120879120879,2025-03-25 11:48:34.504794
0,3640628,2297,1320,1794,-409500.00000000146,131.13553113553112,2025-03-25 11:48:34.523761
0,3640884,2294,1320,1797,-500500.0000000018,292.30769230769226,2025-03-25 11:48:34.523816
0,3641140,2293,1319,1796,-409500.00000000146,471.062271062271,2025-03-25 11:48:34.534778
0,3641396,2296,1323,1796,-409500.00000000146,649.084249084249,2025-03-25 11:48:34.534815
0,3641652,2296,1321,1794,-500500.0000000018,813.1868131868131,2025-03-25 11:48:34.542774
0,3641908,2295,1318,1794,-500500.0000000018,960.4395604395604,2025-03-25 11:48:34.542812
0,3642164,2295,1319,1794,-643500.0000000023,1083.5164835164835,2025-03-25 11:48:34.551793
0,3642420,2292,1320,1795,-500500.0000000018,1187.5457875457876,2025-03-25 11:48:34.566711
0,3642676,2295,1323,1797,-500500.0000000018,1271.7948717948716,2025-03-25 11:48:34.566744
0,3642932,2293,1322,1794,-643500.0000000023,1335.5311355311355,2025-03-25 11:48:34.578823
0,3643188,2297,1320,1792,-500500.0000000018,1375.8241758241757,2025-03-25 11:48:34.578856
0,3643444,2296,1318,1795,-500500.0000000018,1402.197802197802,2025-03-25 11:48:34.591796
0,3643700,2295,1320,1798,-500500.0000000018,1418.3150183150183,2025-03-25 11:48:34.597793
0,3643956,2293,1322,1796,-500500.0000000018,1421.9780219780218,2025-03-25 11:48:34.597825
0,3644212,2296,1323,1796,-500500.0000000018,1414.6520146520145,2025-03-25 11:48:34.609979
0,3644468,2296,1321,1796,-500500.0000000018,1402.9304029304028,2025-03-25 11:48:34.618673
0,3644724,2295,1318,1796,-500500.0000000018,1386.080586080586,2025-03-25 11:48:34.627795
0,3644980,2295,1319,1794,-643500.0000000023,1369.230769230769,2025-03-25 11:48:34.638810
0,3645236,2294,1319,1795,-500500.0000000018,1352.3809523809523,2025-03-25 11:48:34.638843
0,3645492,2294,1321,1798,-500500.0000000018,1334.7985347985348,2025-03-25 11:48:34.654788
0,3645748,2294,1320,1798,-500500.0000000018,1316.4835164835165,2025-03-25 11:48:34.667746
0,3646004,2295,1319,1795,-643500.0000000023,1306.227106227106,2025-03-25 11:48:34.669838
0,3646260,2295,1318,1794,-500500.0000000018,1293.040293040293,2025-03-25 11:48:34.669875
0,3646516,2294,1318,1796,-500500.0000000018,1282.7838827838827,2025-03-25 11:48:34.679746
0,3646772,2295,1320,1796,-500500.0000000018,1276.923076923077,2025-03-25 11:48:34.693847
0,3647028,2296,1321,1797,-500500.0000000018,1274.7252747252746,2025-03-25 11:48:34.699820
0,3647284,2296,1320,1796,-643500.0000000023,1272.5274725274724,2025-03-25 11:48:34.706791
0,3647540,2297,1319,1795,-500500.0000000018,1273.260073260073,2025-03-25 11:48:34.717816
0,3647796,2295,1316,1795,-500500.0000000018,1273.260073260073,2025-03-25 11:48:34.717847
0,3648052,2294,1320,1796,-643500.0000000023,1274.7252747252746,2025-03-25 11:48:34.731763
0,3648308,2294,1320,1796,-500500.0000000018,1278.3882783882782,2025-03-25 11:48:34.736699
0,3648564,2295,1319,1794,-500500.0000000018,1280.5860805860805,2025-03-25 11:48:34.747813
0,3648820,2295,1320,1795,-643500.0000000023,1284.9816849816848,2025-03-25 11:48:34.761801
0,3649076,2295,1318,1796,-643500.0000000023,1287.9120879120878,2025-03-25 11:48:34.761834
0,3649332,2294,1318,1796,-500500.0000000018,1292.3076923076922,2025-03-25 11:48:34.766909
0,3649588,2294,1320,1796,-500500.0000000018,1297.4358974358975,2025-03-25 11:48:34.778718
0,3649844,2294,1320,1795,-500500.0000000018,1303.2967032967033,2025-03-25 11:48:34.787891
0,3650100,2294,1320,1797,-643500.0000000023,1305.4945054945053,2025-03-25 11:48:34.787927
0,3650356,2296,1319,1794,-643500.0000000023,1307.6923076923076,2025-03-25 11:48:34.799762
0,3650612,2293,1318,1795,-500500.0000000018,1310.6227106227104,2025-03-25 11:48:34.812710
0,3650868,2292,1317,1796,-643500.0000000023,1312.8205128205127,2025-03-25 11:48:34.817833
0,3651124,2293,1322,1796,-500500.0000000018,1315.018315018315,2025-03-25 11:48:34.829802
0,3651380,2294,1322,1795,-500500.0000000018,1313.5531135531135,2025-03-25 11:48:34.829835
0,3651636,2296,1321,1795,-500500.0000000018,1314.2857142857142,2025-03-25 11:48:34.844713
0,3651892,2296,1317,1797,-500500.0000000018,1316.4835164835165,2025-03-25 11:48:34.852669
0,3652148,2295,1318,1797,-500500.0000000018,1317.9487179487178,2025-03-25 11:48:34.852702
0,3652404,2297,1319,1796,-500500.0000000018,1318.6813186813185,2025-03-25 11:48:34.859755
0,3652660,2295,1322,1796,-500500.0000000018,1317.216117216117,2025-03-25 11:48:34.872825
0,3652916,2295,1322,1796,-500500.0000000018,1318.6813186813185,2025-03-25 11:48:34.888848
0,3653172,2296,1318,1797,-500500.0000000018,1322.3443223443223,2025-03-25 11:48:34.888880
0,3653428,2297,1318,1795,-643500.0000000023,1323.076923076923,2025-03-25 11:48:34.898698
0,3653684,2295,1319,1795,-500500.0000000018,1323.076923076923,2025-03-25 11:48:34.906839
0,3653940,2294,1322,1794,-500500.0000000018,1323.8095238095236,2025-03-25 11:48:34.914748
0,3654196,2294,1320,1795,-643500.0000000023,1325.2747252747251,2025-03-25 11:48:34.926890
0,3654452,2296,1318,1795,-500500.0000000018,1325.2747252747251,2025-03-25 11:48:34.926929
0,3654708,2294,1318,1793,-500500.0000000018,1324.5421245421244,2025-03-25 11:48:34.931783
0,3654964,2294,1320,1792,-500500.0000000018,1326.7399267399267,2025-03-25 11:48:34.944737
0,3655220,2294,1321,1795,-500500.0000000018,1325.2747252747251,2025-03-25 11:48:34.948814
0,3655476,2295,1321,1795,-500500.0000000018,1329.6703296703297,2025-03-25 11:48:34.948847
0,3655732,2296,1321,1796,-643500.0000000023,1329.6703296703297,2025-03-25 11:48:34.968906
0,3655988,2296,1319,1796,-643500.0000000023,1331.135531135531,2025-03-25 11:48:34.968936
0,3656244,2295,1319,1795,-643500.0000000023,1329.6703296703297,2025-03-25 11:48:34.983770
0,3656500,2294,1320,1794,-500500.0000000018,1328.937728937729,2025-03-25 11:48:34.988887
0,3656756,2292,1320,1797,-500500.0000000018,1331.8681318681317,2025-03-25 11:48:35.004742
0,3657012,2294,1323,1797,-500500.0000000018,1331.135531135531,2025-03-25 11:48:35.004787
0,3657268,2295,1319,1794,-500500.0000000018,1328.937728937729,2025-03-25 11:48:35.009803
0,3657524,2298,1320,1793,-500500.0000000018,1329.6703296703297,2025-03-25 11:48:35.023728
0,3657780,2295,1318,1796,-500500.0000000018,1331.8681318681317,2025-03-25 11:48:35.028720
0,3658036,2293,1320,1794,-500500.0000000018,1331.135531135531,2025-03-25 11:48:35.041782
0,3658292,2294,1322,1793,-500500.0000000018,1329.6703296703297,2025-03-25 11:48:35.041815
0,3658548,2296,1322,1795,-500500.0000000018,1330.4029304029302,2025-03-25 11:48:35.047788
0,3658804,2294,1321,1792,-500500.0000000018,1332.6007326007325,2025-03-25 11:48:35.059768
0,3659060,2294,1318,1795,-500500.0000000018,1333.3333333333333,2025-03-25 11:48:35.064897
0,3659316,2294,1316,1796,-500500.0000000018,1335.5311355311355,2025-03-25 11:48:35.082821
0,3659572,2296,1320,1796,-500500.0000000018,1335.5311355311355,2025-03-25 11:48:35.082853
0,3659828,2293,1319,1795,-500500.0000000018,1333.3333333333333,2025-03-25 11:48:35.087782
0,3660084,2297,1319,1794,-500500.0000000018,1335.5311355311355,2025-03-25 11:48:35.104819
0,3660340,2296,1320,1798,-500500.0000000018,1338.4615384615383,2025-03-25 11:48:35.104849
0,3660596,2296,1318,1796,-409500.00000000146,1337.7289377289376,2025-03-25 11:48:35.111754
0,3660852,2293,1319,1796,-500500.0000000018,1333.3333333333333,2025-03-25 11:48:35.128774
0,3661108,2294,1322,1796,-500500.0000000018,1335.5311355311355,2025-03-25 11:48:35.128805
0,3661364,2294,1319,1796,-500500.0000000018,1335.5311355311355,2025-03-25 11:48:35.128833
0,3661620,2295,1321,1795,-500500.0000000018,1337.7289377289376,2025-03-25 11:48:35.139764
0,3661876,2295,1319,1796,-500500.0000000018,1336.9963369963368,2025-03-25 11:48:35.148711
0,3662132,2295,1318,1794,-500500.0000000018,1336.9963369963368,2025-03-25 11:48:35.173787
0,3662388,2295,1318,1794,-500500.0000000018,1338.4615384615383,2025-03-25 11:48:35.173828
0,3662644,2294,1321,1793,-643500.0000000023,1339.194139194139,2025-03-25 11:48:35.173847
0,3662900,2294,1322,1796,-500500.0000000018,1341.3919413919414,2025-03-25 11:48:35.184781
0,3663156,2294,1319,1793,-500500.0000000018,1337.7289377289376,2025-03-25 11:48:35.192793
0,3663412,2294,1318,1793,-643500.0000000023,1341.3919413919414,2025-03-25 11:48:35.211780
0,3663668,2296,1319,1798,-500500.0000000018,1342.1245421245421,2025-03-25 11:48:35.218797
0,3663924,2292,1319,1794,-500500.0000000018,1342.1245421245421,2025-03-25 11:48:35.218832
0,3664180,2294,1319,1796,-500500.0000000018,1339.194139194139,2025-03-25 11:48:35.228728
0,3664436,2295,1320,1796,-500500.0000000018,1339.9267399267399,2025-03-25 11:48:35.233763
0,3664692,2295,1319,1796,-500500.0000000018,1338.4615384615383,2025-03-25 11:48:35.246777
0,3664948,2296,1316,1798,-500500.0000000018,1341.3919413919414,2025-03-25 11:48:35.246807
0,3665204,2296,1319,1795,-500500.0000000018,1340.6593406593406,2025-03-25 11:48:35.266793
0,3665460,2293,1319,1796,-500500.0000000018,1341.3919413919414,2025-03-25 11:48:35.266826
0,3665716,2295,1320,1795,-500500.0000000018,1344.3223443223442,2025-03-25 11:48:35.271791
0,3665972,2295,1319,1794,-643500.0000000023,1347.2527472527472,2025-03-25 11:48:35.282717
0,3666228,2297,1319,1794,-500500.0000000018,1347.985347985348,2025-03-25 11:48:35.288769
0,3666484,2296,1317,1796,-643500.0000000023,1346.5201465201465,2025-03-25 11:48:35.288801
0,3666740,2294,1319,1795,-643500.0000000023,1347.2527472527472,2025-03-25 11:48:35.301734
0,3666996,2293,1319,1796,-500500.0000000018,1348.7179487179487,2025-03-25 11:48:35.308660
0,3667252,2293,1322,1798,-500500.0000000018,1347.985347985348,2025-03-25 11:48:35.318771
0,3667508,2294,1321,1797,-500500.0000000018,1348.7179487179487,2025-03-25 11:48:35.318803
0,3667764,2297,1320,1796,-500500.0000000018,1347.985347985348,2025-03-25 11:48:35.329823
0,3668020,2298,1320,1794,-500500.0000000018,1345.7875457875457,2025-03-25 11:48:35.338816
0,3668276,2295,1319,1797,-500500.0000000018,1348.7179487179487,2025-03-25 11:48:35.347800
0,3668532,2293,1318,1796,-500500.0000000018,1347.985347985348,2025-03-25 11:48:35.347831
0,3668788,2293,1320,1798,-500500.0000000018,1348.7179487179487,2025-03-25 11:48:35.359794
0,3669044,2296,1321,1794,-500500.0000000018,1347.2527472527472,2025-03-25 11:48:35.369760
0,3669300,2296,1319,1795,-500500.0000000018,1346.5201465201465,2025-03-25 11:48:35.382788
0,3669556,2294,1318,1797,-500500.0000000018,1345.7875457875457,2025-03-25 11:48:35.386836
0,3669812,2295,1318,1795,-643500.0000000023,1347.985347985348,2025-03-25 11:48:35.386867
0,3670068,2295,1320,1795,-500500.0000000018,1347.2527472527472,2025-03-25 11:48:35.396761
0,3670324,2294,1323,1792,-500500.0000000018,1345.7875457875457,2025-03-25 11:48:35.409813
0,3670580,2295,1321,1796,-643500.0000000023,1347.985347985348,2025-03-25 11:48:35.421723
0,3670836,2295,1319,1793,-500500.0000000018,1349.4505494505493,2025-03-25 11:48:35.421755
0,3671092,2296,1320,1792,-643500.0000000023,1348.7179487179487,2025-03-25 11:48:35.432827
0,3671348,2296,1318,1794,-500500.0000000018,1347.985347985348,2025-03-25 11:48:35.441875
0,3671604,2293,1319,1797,-500500.0000000018,1346.5201465201465,2025-03-25 11:48:35.461738
0,3671860,2295,1319,1797,-500500.0000000018,1350.18315018315,2025-03-25 11:48:35.461774
0,3672116,2295,1319,1795,-500500.0000000018,1350.9157509157508,2025-03-25 11:48:35.461795
0,3672372,2296,1319,1795,-500500.0000000018,1351.6483516483515,2025-03-25 11:48:35.472898
0,3672628,2297,1316,1799,-643500.0000000023,1350.9157509157508,2025-03-25 11:48:35.477766
0,3672884,2294,1318,1795,-500500.0000000018,1351.6483516483515,2025-03-25 11:48:35.489802
0,3673140,2294,1319,1794,-500500.0000000018,1352.3809523809523,2025-03-25 11:48:35.496737
0,3673396,2294,1321,1792,-500500.0000000018,1352.3809523809523,2025-03-25 11:48:35.504725
0,3673652,2296,1320,1795,-500500.0000000018,1351.6483516483515,2025-03-25 11:48:35.504757
0,3673908,2297,1318,1794,-500500.0000000018,1349.4505494505493,2025-03-25 11:48:35.517696
0,3674164,2295,1319,1791,-500500.0000000018,1352.3809523809523,2025-03-25 11:48:35.532583
0,3674420,2293,1318,1794,-500500.0000000018,1353.8461538461538,2025-03-25 11:48:35.537817
0,3674676,2293,1319,1795,-643500.0000000023,1353.113553113553,2025-03-25 11:48:35.537851
0,3674932,2294,1321,1795,-500500.0000000018,1353.113553113553,2025-03-25 11:48:35.548718
0,3675188,2295,1320,1797,-500500.0000000018,1351.6483516483515,2025-03-25 11:48:35.559706
0,3675444,2297,1317,1793,-500500.0000000018,1353.113553113553,2025-03-25 11:48:35.567671
0,3675700,2294,1317,1796,-500500.0000000018,1353.8461538461538,2025-03-25 11:48:35.587437
0,3675956,2293,1320,1797,-643500.0000000023,1352.3809523809523,2025-03-25 11:48:35.587481
0,3676212,2293,1321,1793,-500500.0000000018,1353.113553113553,2025-03-25 11:48:35.589785
0,3676468,2295,1321,1795,-643500.0000000023,1353.8461538461538,2025-03-25 11:48:35.601855
0,3676724,2297,1320,1792,-500500.0000000018,1356.0439560439559,2025-03-25 11:48:35.601902
0,3676980,2295,1318,1796,-500500.0000000018,1353.113553113553,2025-03-25 11:48:35.610802
0,3677236,2294,1318,1796,-643500.0000000023,1356.0439560439559,2025-03-25 11:48:35.623604
0,3677492,2292,1320,1797,-500500.0000000018,1355.3113553113553,2025-03-25 11:48:35.639771
0,3677748,2291,1322,1798,-500500.0000000018,1356.0439560439559,2025-03-25 11:48:35.639826
0,3678004,2295,1322,1797,-500500.0000000018,1354.5787545787546,2025-03-25 11:48:35.644737
0,3678260,2296,1319,1795,-500500.0000000018,1355.3113553113553,2025-03-25 11:48:35.646795
0,3678516,2299,1319,1797,-500500.0000000018,1354.5787545787546,2025-03-25 11:48:35.658803
0,3678772,2294,1319,1797,-643500.0000000023,1354.5787545787546,2025-03-25 11:48:35.670814
0,3679028,2293,1320,1799,-500500.0000000018,1356.7765567765566,2025-03-25 11:48:35.670847
0,3679284,2294,1322,1795,-643500.0000000023,1357.5091575091574,2025-03-25 11:48:35.681852
0,3679540,2294,1320,1795,-500500.0000000018,1356.0439560439559,2025-03-25 11:48:35.690803
0,3679796,2297,1320,1794,-500500.0000000018,1356.7765567765566,2025-03-25 11:48:35.702817
0,3680052,2296,1318,1795,-643500.0000000023,1357.5091575091574,2025-03-25 11:48:35.702855
0,3680308,2295,1320,1792,-500500.0000000018,1359.7069597069597,2025-03-25 11:48:35.716798
0,3680564,2295,1322,1793,-500500.0000000018,1357.5091575091574,2025-03-25 11:48:35.716835
0,3680820,2296,1322,1796,-500500.0000000018,1358.2417582417581,2025-03-25 11:48:35.728836
0,3681076,2298,1320,1792,-500500.0000000018,1358.2417582417581,2025-03-25 11:48:35.748807
0,3681332,2297,1319,1794,-500500.0000000018,1358.974358974359,2025-03-25 11:48:35.751781
0,3681588,2294,1317,1793,-643500.0000000023,1358.2417582417581,2025-03-25 11:48:35.763797
0,3681844,2294,1319,1797,-643500.0000000023,1359.7069597069597,2025-03-25 11:48:35.763833
0,3682100,2295,1321,1796,-500500.0000000018,1358.974358974359,2025-03-25 11:48:35.771819
0,3682356,2294,1319,1795,-500500.0000000018,1360.4395604395604,2025-03-25 11:48:35.782753
0,3682612,2296,1319,1795,-500500.0000000018,1360.4395604395604,2025-03-25 11:48:35.797762
0,3682868,2294,1317,1795,-500500.0000000018,1359.7069597069597,2025-03-25 11:48:35.797798
0,3683124,2296,1320,1796,-500500.0000000018,1359.7069597069597,2025-03-25 11:48:35.807001
0,3683380,2292,1320,1794,-500500.0000000018,1358.2417582417581,2025-03-25 11:48:35.818798
0,3683636,2294,1320,1795,-500500.0000000018,1361.1721611721612,2025-03-25 11:48:35.823732
0,3683892,2294,1320,1796,-643500.0000000023,1359.7069597069597,2025-03-25 11:48:35.834812
0,3684148,2295,1320,1793,-500500.0000000018,1356.7765567765566,2025-03-25 11:48:35.834860
0,3684404,2295,1319,1794,-500500.0000000018,1358.2417582417581,2025-03-25 11:48:35.836795
0,3684660,2294,1319,1795,-500500.0000000018,1360.4395604395604,2025-03-25 11:48:35.859752
0,3684916,2293,1320,1796,-500500.0000000018,1361.904761904762,2025-03-25 11:48:35.859786
0,3685172,2295,1319,1795,-500500.0000000018,1359.7069597069597,2025-03-25 11:48:35.867750
0,3685428,2295,1321,1798,-500500.0000000018,1359.7069597069597,2025-03-25 11:48:35.867782
0,3685684,2296,1318,1794,-500500.0000000018,1360.4395604395604,2025-03-25 11:48:35.882802
0,3685940,2296,1319,1795,-643500.0000000023,1358.974358974359,2025-03-25 11:48:35.882849
0,3686196,2296,1320,1795,-500500.0000000018,1359.7069597069597,2025-03-25 11:48:35.882868
0,3686452,2293,1321,1799,-643500.0000000023,1356.7765567765566,2025-03-25 11:48:35.907794
0,3686708,2294,1320,1798,-500500.0000000018,1356.7765567765566,2025-03-25 11:48:35.907827
0,3686964,2295,1319,1794,-500500.0000000018,1358.974358974359,2025-03-25 11:48:35.923782
0,3687220,2295,1319,1795,-500500.0000000018,1359.7069597069597,2025-03-25 11:48:35.923816
0,3687476,2294,1316,1795,-500500.0000000018,1361.904761904762,2025-03-25 11:48:35.929841
0,3687732,2293,1317,1795,-500500.0000000018,1361.1721611721612,2025-03-25 11:48:35.953955
0,3687988,2293,1318,1796,-643500.0000000023,1363.3699633699632,2025-03-25 11:48:35.954005
0,3688244,2295,1319,1792,-500500.0000000018,1364.102564102564,2025-03-25 11:48:35.956835
0,3688500,2296,1320,1796,-500500.0000000018,1364.8351648351647,2025-03-25 11:48:35.968893
0,3688756,2296,1321,1791,-500500.0000000018,1363.3699633699632,2025-03-25 11:48:35.968929
0,3689012,2296,1321,1795,-643500.0000000023,1364.102564102564,2025-03-25 11:48:35.977913
0,3689268,2294,1321,1796,-643500.0000000023,1365.5677655677655,2025-03-25 11:48:35.991767
0,3689524,2294,1320,1793,-500500.0000000018,1365.5677655677655,2025-03-25 11:48:36.001866
0,3689780,2294,1319,1796,-500500.0000000018,1362.6373626373625,2025-03-25 11:48:36.022775
0,3690036,2295,1320,1795,-500500.0000000018,1360.4395604395604,2025-03-25 11:48:36.022811
0,3690292,2298,1318,1794,-643500.0000000023,1361.1721611721612,2025-03-25 11:48:36.031816
0,3690548,2296,1319,1795,-643500.0000000023,1360.4395604395604,2025-03-25 11:48:36.040797
0,3690804,2294,1319,1796,-500500.0000000018,1359.7069597069597,2025-03-25 11:48:36.040833
0,3691060,2296,1320,1796,-500500.0000000018,1359.7069597069597,2025-03-25 11:48:36.048920
0,3691316,2294,1323,1796,-500500.0000000018,1358.2417582417581,2025-03-25 11:48:36.054781
0,3691572,2296,1319,1794,-500500.0000000018,1361.1721611721612,2025-03-25 11:48:36.073815
0,3691828,2296,1317,1795,-500500.0000000018,1362.6373626373625,2025-03-25 11:48:36.073849
0,3692084,2295,1318,1792,-643500.0000000023,1364.102564102564,2025-03-25 11:48:36.089805
0,3692340,2295,1319,1796,-500500.0000000018,1362.6373626373625,2025-03-25 11:48:36.089840
0,3692596,2295,1319,1795,-500500.0000000018,1362.6373626373625,2025-03-25 11:48:36.092843
0,3692852,2295,1318,1795,-643500.0000000023,1365.5677655677655,2025-03-25 11:48:36.101783
0,3693108,2296,1318,1796,-500500.0000000018,1367.032967032967,2025-03-25 11:48:36.101818
0,3693364,2296,1319,1796,-643500.0000000023,1365.5677655677655,2025-03-25 11:48:36.107823
0,3693620,2295,1320,1797,-500500.0000000018,1364.102564102564,2025-03-25 11:48:36.119820
0,3693876,2295,1320,1795,-500500.0000000018,1367.032967032967,2025-03-25 11:48:36.143724
0,3694132,2295,1321,1796,-643500.0000000023,1367.032967032967,2025-03-25 11:48:36.143772
0,3694388,2297,1320,1795,-500500.0000000018,1365.5677655677655,2025-03-25 11:48:36.146827
0,3694644,2295,1317,1796,-500500.0000000018,1364.8351648351647,2025-03-25 11:48:36.146861
0,3694900,2294,1320,1796,-500500.0000000018,1362.6373626373625,2025-03-25 11:48:36.161904
0,3695156,2293,1321,1796,-643500.0000000023,1367.032967032967,2025-03-25 11:48:36.173746
0,3695412,2294,1321,1798,-500500.0000000018,1364.8351648351647,2025-03-25 11:48:36.173781
0,3695668,2294,1321,1799,-500500.0000000018,1364.102564102564,2025-03-25 11:48:36.179811
0,3695924,2296,1318,1796,-500500.0000000018,1364.102564102564,2025-03-25 11:48:36.188717
0,3696180,2293,1319,1795,-500500.0000000018,1364.8351648351647,2025-03-25 11:48:36.204798
0,3696436,2295,1321,1795,-500500.0000000018,1364.8351648351647,2025-03-25 11:48:36.208799
0,3696692,2295,1321,1796,-500500.0000000018,1365.5677655677655,2025-03-25 11:48:36.216823
0,3696948,2295,1320,1792,-500500.0000000018,1364.102564102564,2025-03-25 11:48:36.216860
0,3697204,2295,1320,1792,-643500.0000000023,1365.5677655677655,2025-03-25 11:48:36.233878
0,3697460,2297,1320,1796,-500500.0000000018,1366.3003663003662,2025-03-25 11:48:36.238781
0,3697716,2294,1320,1795,-500500.0000000018,1366.3003663003662,2025-03-25 11:48:36.252025
0,3697972,2295,1320,1798,-643500.0000000023,1364.8351648351647,2025-03-25 11:48:36.252060
0,3698228,2295,1320,1797,-500500.0000000018,1363.3699633699632,2025-03-25 11:48:36.256784
0,3698484,2298,1321,1796,-500500.0000000018,1362.6373626373625,2025-03-25 11:48:36.268791
0,3698740,2295,1319,1795,-500500.0000000018,1362.6373626373625,2025-03-25 11:48:36.277800
0,3698996,2295,1317,1796,-500500.0000000018,1364.8351648351647,2025-03-25 11:48:36.291764
0,3699252,2294,1319,1798,-500500.0000000018,1362.6373626373625,2025-03-25 11:48:36.291800
0,3699508,2296,1321,1798,-500500.0000000018,1362.6373626373625,2025-03-25 11:48:36.296807
0,3699764,2296,1321,1796,-500500.0000000018,1364.102564102564,2025-03-25 11:48:36.308678
0,3700020,2296,1320,1795,-500500.0000000018,1364.8351648351647,2025-03-25 11:48:36.317832
0,3700276,2295,1316,1795,-643500.0000000023,1367.7655677655678,2025-03-25 11:48:36.317866
0,3700532,2293,1319,1797,-500500.0000000018,1366.3003663003662,2025-03-25 11:48:36.331835
0,3700788,2294,1319,1797,-500500.0000000018,1366.3003663003662,2025-03-25 11:48:36.340789
0,3701044,2292,1321,1795,-500500.0000000018,1367.032967032967,2025-03-25 11:48:36.353721
0,3701300,2295,1322,1796,-643500.0000000023,1369.230769230769,2025-03-25 11:48:36.353810
0,3701556,2296,1320,1795,-500500.0000000018,1367.032967032967,2025-03-25 11:48:36.362836
0,3701812,2296,1319,1794,-500500.0000000018,1368.4981684981683,2025-03-25 11:48:36.377787
0,3702068,2293,1319,1796,-500500.0000000018,1369.230769230769,2025-03-25 11:48:36.386846
0,3702324,2295,1321,1796,-643500.0000000023,1371.4285714285713,2025-03-25 11:48:36.386896
0,3702580,2294,1322,1798,-500500.0000000018,1367.7655677655678,2025-03-25 11:48:36.393776
0,3702836,2296,1322,1795,-500500.0000000018,1365.5677655677655,2025-03-25 11:48:36.402784
0,3703092,2298,1318,1796,-500500.0000000018,1364.8351648351647,2025-03-25 11:48:36.413791
0,3703348,2295,1318,1797,-500500.0000000018,1365.5677655677655,2025-03-25 11:48:36.422799
0,3703604,2293,1318,1797,-500500.0000000018,1364.8351648351647,2025-03-25 11:48:36.422836
0,3703860,2294,1323,1797,-500500.0000000018,1364.8351648351647,2025-03-25 11:48:36.432803
0,3704116,2294,1322,1796,-500500.0000000018,1364.8351648351647,2025-03-25 11:48:36.443793
0,3704372,2297,1319,1795,-643500.0000000023,1367.032967032967,2025-03-25 11:48:36.448874
0,3704628,2298,1318,1796,-500500.0000000018,1367.7655677655678,2025-03-25 11:48:36.448909
0,3704884,2296,1317,1793,-500500.0000000018,1370.6959706959706,2025-03-25 11:48:36.456716
0,3705140,2293,1320,1794,-643500.0000000023,1367.7655677655678,2025-03-25 11:48:36.468808
0,3705396,2293,1322,1794,-500500.0000000018,1366.3003663003662,2025-03-25 11:48:36.477834
0,3705652,2293,1320,1794,-643500.0000000023,1369.230769230769,2025-03-25 11:48:36.492730
0,3705908,2296,1320,1796,-500500.0000000018,1369.9633699633698,2025-03-25 11:48:36.497769
0,3706164,2296,1318,1797,-500500.0000000018,1368.4981684981683,2025-03-25 11:48:36.510780
0,3706420,2295,1318,1797,-643500.0000000023,1367.7655677655678,2025-03-25 11:48:36.510816
0,3706676,2295,1319,1796,-500500.0000000018,1367.032967032967,2025-03-25 11:48:36.514751
0,3706932,2294,1322,1797,-643500.0000000023,1369.230769230769,2025-03-25 11:48:36.532840
0,3707188,2295,1318,1797,-500500.0000000018,1368.4981684981683,2025-03-25 11:48:36.538809
0,3707444,2297,1318,1795,-643500.0000000023,1367.7655677655678,2025-03-25 11:48:36.538842
0,3707700,2296,1319,1795,-500500.0000000018,1368.4981684981683,2025-03-25 11:48:36.549885
0,3707956,2293,1319,1792,-643500.0000000023,1369.230769230769,2025-03-25 11:48:36.558740
0,3708212,2294,1322,1794,-500500.0000000018,1371.4285714285713,2025-03-25 11:48:36.567814
0,3708468,2296,1322,1795,-500500.0000000018,1370.6959706959706,2025-03-25 11:48:36.567849
0,3708724,2296,1321,1794,-500500.0000000018,1370.6959706959706,2025-03-25 11:48:36.576802
0,3708980,2295,1320,1795,-500500.0000000018,1369.9633699633698,2025-03-25 11:48:36.587919
0,3709236,2294,1318,1794,-500500.0000000018,1370.6959706959706,2025-03-25 11:48:36.605821
0,3709492,2294,1320,1795,-500500.0000000018,1369.9633699633698,2025-03-25 11:48:36.605855
0,3709748,2293,1322,1799,-500500.0000000018,1367.7655677655678,2025-03-25 11:48:36.609903
0,3710004,2294,1322,1797,-500500.0000000018,1369.230769230769,2025-03-25 11:48:36.622802
0,3710260,2296,1320,1796,-500500.0000000018,1367.7655677655678,2025-03-25 11:48:36.627805
0,3710516,2294,1318,1796,-500500.0000000018,1367.032967032967,2025-03-25 11:48:36.639804
0,3710772,2294,1319,1794,-500500.0000000018,1364.8351648351647,2025-03-25 11:48:36.639839
0,3711028,2293,1321,1796,-500500.0000000018,1367.032967032967,2025-03-25 11:48:36.654780
0,3711284,2294,1321,1796,-500500.0000000018,1367.032967032967,2025-03-25 11:48:36.661748
0,3711540,2296,1321,1798,-500500.0000000018,1369.9633699633698,2025-03-25 11:48:36.673799
0,3711796,2297,1319,1795,-500500.0000000018,1369.9633699633698,2025-03-25 11:48:36.673833
0,3712052,2297,1316,1795,-500500.0000000018,1370.6959706959706,2025-03-25 11:48:36.679767
0,3712308,2295,1320,1797,-500500.0000000018,1369.230769230769,2025-03-25 11:48:36.693787
0,3712564,2294,1321,1797,-500500.0000000018,1371.4285714285713,2025-03-25 11:48:36.708785
0,3712820,2294,1321,1796,-500500.0000000018,1373.6263736263736,2025-03-25 11:48:36.710908
0,3713076,2295,1319,1793,-643500.0000000023,1372.161172161172,2025-03-25 11:48:36.710945
0,3713332,2295,1319,1796,-500500.0000000018,1369.9633699633698,2025-03-25 11:48:36.723790
0,3713588,2294,1319,1796,-500500.0000000018,1372.8937728937728,2025-03-25 11:48:36.731819
0,3713844,2296,1320,1795,-643500.0000000023,1372.8937728937728,2025-03-25 11:48:36.742746
0,3714100,2295,1322,1798,-500500.0000000018,1374.3589743589744,2025-03-25 11:48:36.742779
0,3714356,2295,1321,1796,-500500.0000000018,1370.6959706959706,2025-03-25 11:48:36.761817
0,3714612,2296,1320,1796,-643500.0000000023,1371.4285714285713,2025-03-25 11:48:36.761852
0,3714868,2296,1321,1795,-500500.0000000018,1370.6959706959706,2025-03-25 11:48:36.769775
0,3715124,2295,1318,1794,-500500.0000000018,1374.3589743589744,2025-03-25 11:48:36.783662
0,3715380,2296,1320,1795,-500500.0000000018,1375.8241758241757,2025-03-25 11:48:36.783695
0,3715636,2295,1321,1796,-500500.0000000018,1372.161172161172,2025-03-25 11:48:36.791759
0,3715892,2295,1320,1796,-500500.0000000018,1373.6263736263736,2025-03-25 11:48:36.803761
0,3716148,2296,1320,1797,-500500.0000000018,1372.8937728937728,2025-03-25 11:48:36.808957
0,3716404,2296,1320,1796,-500500.0000000018,1373.6263736263736,2025-03-25 11:48:36.808994
0,3716660,2295,1319,1794,-643500.0000000023,1374.3589743589744,2025-03-25 11:48:36.821784
0,3716916,2296,1320,1794,-500500.0000000018,1374.3589743589744,2025-03-25 11:48:36.826785
0,3717172,2295,1321,1795,-500500.0000000018,1372.8937728937728,2025-03-25 11:48:36.838739
0,3717428,2295,1320,1797,-500500.0000000018,1374.3589743589744,2025-03-25 11:48:36.848769
0,3717684,2294,1320,1795,-500500.0000000018,1372.8937728937728,2025-03-25 11:48:36.848805
0,3717940,2296,1320,1795,-500500.0000000018,1372.161172161172,2025-03-25 11:48:36.866745
0,3718196,2294,1319,1792,-500500.0000000018,1369.9633699633698,2025-03-25 11:48:36.868799
0,3718452,2296,1320,1795,-500500.0000000018,1372.161172161172,2025-03-25 11:48:36.881727
0,3718708,2294,1319,1795,-643500.0000000023,1373.6263736263736,2025-03-25 11:48:36.886766
0,3718964,2296,1320,1797,-500500.0000000018,1371.4285714285713,2025-03-25 11:48:36.886800
0,3719220,2295,1320,1796,-500500.0000000018,1368.4981684981683,2025-03-25 11:48:36.898715
0,3719476,2297,1320,1797,-500500.0000000018,1367.032967032967,2025-03-25 11:48:36.907701
0,3719732,2296,1319,1795,-500500.0000000018,1368.4981684981683,2025-03-25 11:48:36.921767
0,3719988,2297,1321,1798,-500500.0000000018,1368.4981684981683,2025-03-25 11:48:36.921808
0,3720244,2293,1318,1799,-500500.0000000018,1368.4981684981683,2025-03-25 11:48:36.930793
0,3720500,2294,1319,1798,-500500.0000000018,1367.7655677655678,2025-03-25 11:48:36.943735
0,3720756,2295,1321,1794,-500500.0000000018,1369.9633699633698,2025-03-25 11:48:36.951873
0,3721012,2296,1323,1795,-500500.0000000018,1372.8937728937728,2025-03-25 11:48:36.951911
0,3721268,2294,1319,1795,-500500.0000000018,1372.161172161172,2025-03-25 11:48:36.961864
0,3721524,2296,1319,1795,-500500.0000000018,1372.161172161172,2025-03-25 11:48:36.972845
0,3721780,2294,1319,1795,-643500.0000000023,1373.6263736263736,2025-03-25 11:48:36.981830
0,3722036,2296,1321,1798,-500500.0000000018,1377.2893772893772,2025-03-25 11:48:36.996878
0,3722292,2298,1321,1796,-643500.0000000023,1376.5567765567764,2025-03-25 11:48:36.998862
0,3722548,2295,1319,1797,-500500.0000000018,1375.091575091575,2025-03-25 11:48:37.012813
0,3722804,2294,1319,1797,-500500.0000000018,1375.091575091575,2025-03-25 11:48:37.012848
0,3723060,2294,1320,1796,-500500.0000000018,1375.8241758241757,2025-03-25 11:48:37.026833
0,3723316,2294,1321,1799,-500500.0000000018,1374.3589743589744,2025-03-25 11:48:37.032864
0,3723572,2295,1322,1794,-500500.0000000018,1373.6263736263736,2025-03-25 11:48:37.032899
0,3723828,2294,1320,1796,-500500.0000000018,1371.4285714285713,2025-03-25 11:48:37.041974
0,3724084,2296,1321,1797,-500500.0000000018,1371.4285714285713,2025-03-25 11:48:37.053791
0,3724340,2295,1318,1795,-500500.0000000018,1369.9633699633698,2025-03-25 11:48:37.065717
0,3724596,2293,1318,1797,-500500.0000000018,1371.4285714285713,2025-03-25 11:48:37.065753
0,3724852,2293,1319,1798,-500500.0000000018,1369.9633699633698,2025-03-25 11:48:37.083744
0,3725108,2296,1322,1796,-500500.0000000018,1369.230769230769,2025-03-25 11:48:37.083778
0,3725364,2297,1322,1795,-500500.0000000018,1371.4285714285713,2025-03-25 11:48:37.083795
0,3725620,2297,1319,1793,-643500.0000000023,1372.8937728937728,2025-03-25 11:48:37.102769
0,3725876,2294,1318,1792,-500500.0000000018,1375.8241758241757,2025-03-25 11:48:37.102803
0,3726132,2294,1319,1794,-500500.0000000018,1375.091575091575,2025-03-25 11:48:37.113714
0,3726388,2293,1320,1794,-643500.0000000023,1375.091575091575,2025-03-25 11:48:37.118726
0,3726644,2294,1322,1797,-500500.0000000018,1378.7545787545787,2025-03-25 11:48:37.131756
0,3726900,2296,1322,1797,-643500.0000000023,1378.7545787545787,2025-03-25 11:48:37.145973
0,3727156,2298,1318,1797,-500500.0000000018,1378.7545787545787,2025-03-25 11:48:37.146007
0,3727412,2296,1319,1798,-643500.0000000023,1375.8241758241757,2025-03-25 11:48:37.153828
0,3727668,2295,1323,1799,-643500.0000000023,1376.5567765567764,2025-03-25 11:48:37.153876
0,3727924,2295,1322,1797,-500500.0000000018,1375.091575091575,2025-03-25 11:48:37.172886
0,3728180,2295,1321,1798,-643500.0000000023,1376.5567765567764,2025-03-25 11:48:37.172922
0,3728436,2294,1318,1794,-500500.0000000018,1375.091575091575,2025-03-25 11:48:37.183868
0,3728692,2295,1317,1792,-500500.0000000018,1375.8241758241757,2025-03-25 11:48:37.188817
0,3728948,2295,1319,1794,-500500.0000000018,1376.5567765567764,2025-03-25 11:48:37.201876
0,3729204,2295,1322,1798,-500500.0000000018,1375.8241758241757,2025-03-25 11:48:37.206764
0,3729460,2294,1323,1796,-500500.0000000018,1375.091575091575,2025-03-25 11:48:37.231740
0,3729716,2294,1321,1796,-500500.0000000018,1374.3589743589744,2025-03-25 11:48:37.231778
0,3729972,2295,1319,1797,-500500.0000000018,1375.8241758241757,2025-03-25 11:48:37.237768
0,3730228,2297,1318,1793,-500500.0000000018,1375.8241758241757,2025-03-25 11:48:37.237808
0,3730484,2294,1319,1793,-500500.0000000018,1374.3589743589744,2025-03-25 11:48:37.251780
0,3730740,2294,1323,1795,-643500.0000000023,1375.091575091575,2025-03-25 11:48:37.251817
0,3730996,2293,1322,1795,-643500.0000000023,1374.3589743589744,2025-03-25 11:48:37.256787
0,3731252,2295,1319,1794,-500500.0000000018,1374.3589743589744,2025-03-25 11:48:37.268763
0,3731508,2296,1317,1793,-500500.0000000018,1374.3589743589744,2025-03-25 11:48:37.281779
0,3731764,2295,1319,1795,-500500.0000000018,1372.8937728937728,2025-03-25 11:48:37.286781
0,3732020,2293,1319,1797,-500500.0000000018,1372.8937728937728,2025-03-25 11:48:37.286817
0,3732276,2296,1323,1797,-500500.0000000018,1373.6263736263736,2025-03-25 11:48:37.296765
0,3732532,2295,1319,1797,-500500.0000000018,1373.6263736263736,2025-03-25 11:48:37.310766
0,3732788,2297,1320,1795,-500500.0000000018,1374.3589743589744,2025-03-25 11:48:37.318896
0,3733044,2297,1317,1795,-643500.0000000023,1373.6263736263736,2025-03-25 11:48:37.332740
0,3733300,2297,1320,1796,-500500.0000000018,1373.6263736263736,2025-03-25 11:48:37.332776
0,3733556,2294,1322,1793,-643500.0000000023,1374.3589743589744,2025-03-25 11:48:37.338777
0,3733812,2296,1322,1795,-500500.0000000018,1376.5567765567764,2025-03-25 11:48:37.352822
0,3734068,2295,1320,1794,-500500.0000000018,1375.8241758241757,2025-03-25 11:48:37.352859
0,3734324,2297,1319,1795,-500500.0000000018,1375.091575091575,2025-03-25 11:48:37.363681
0,3734580,2295,1318,1798,-500500.0000000018,1374.3589743589744,2025-03-25 11:48:37.369724
0,3734836,2295,1322,1798,-500500.0000000018,1378.021978021978,2025-03-25 11:48:37.383794
0,3735092,2296,1321,1796,-500500.0000000018,1378.7545787545787,2025-03-25 11:48:37.398803
0,3735348,2297,1321,1797,-500500.0000000018,1376.5567765567764,2025-03-25 11:48:37.398839
0,3735604,2295,1320,1796,-500500.0000000018,1378.021978021978,2025-03-25 11:48:37.403795
0,3735860,2296,1320,1797,-500500.0000000018,1376.5567765567764,2025-03-25 11:48:37.414903
0,3736116,2294,1319,1797,-500500.0000000018,1378.021978021978,2025-03-25 11:48:37.432763
0,3736372,2296,1320,1795,-643500.0000000023,1377.2893772893772,2025-03-25 11:48:37.432797
0,3736628,2295,1323,1795,-500500.0000000018,1377.2893772893772,2025-03-25 11:48:37.432816
0,3736884,2294,1322,1795,-500500.0000000018,1376.5567765567764,2025-03-25 11:48:37.451699
0,3737140,2294,1321,1795,-500500.0000000018,1380.2197802197802,2025-03-25 11:48:37.451733
0,3737396,2294,1319,1793,-500500.0000000018,1378.7545787545787,2025-03-25 11:48:37.451751
0,3737652,2295,1320,1795,-643500.0000000023,1375.8241758241757,2025-03-25 11:48:37.463740
0,3737908,2293,1321,1796,-500500.0000000018,1372.8937728937728,2025-03-25 11:48:37.468709
0,3738164,2294,1321,1794,-500500.0000000018,1372.161172161172,2025-03-25 11:48:37.481954
0,3738420,2296,1319,1794,-500500.0000000018,1373.6263736263736,2025-03-25 11:48:37.486792
0,3738676,2296,1321,1796,-643500.0000000023,1372.8937728937728,2025-03-25 11:48:37.503799
0,3738932,2293,1320,1795,-643500.0000000023,1369.9633699633698,2025-03-25 11:48:37.508722
0,3739188,2294,1319,1794,-643500.0000000023,1369.9633699633698,2025-03-25 11:48:37.508759
0,3739444,2294,1319,1795,-500500.0000000018,1372.161172161172,2025-03-25 11:48:37.519774
0,3739700,2295,1321,1795,-500500.0000000018,1374.3589743589744,2025-03-25 11:48:37.526798
0,3739956,2295,1322,1798,-643500.0000000023,1375.091575091575,2025-03-25 11:48:37.526831
0,3740212,2295,1319,1795,-500500.0000000018,1374.3589743589744,2025-03-25 11:48:37.538782
0,3740468,2296,1319,1797,-500500.0000000018,1376.5567765567764,2025-03-25 11:48:37.554801
0,3740724,2293,1317,1796,-500500.0000000018,1378.7545787545787,2025-03-25 11:48:37.560721
0,3740980,2294,1320,1797,-500500.0000000018,1377.2893772893772,2025-03-25 11:48:37.560755
0,3741236,2292,1318,1798,-500500.0000000018,1376.5567765567764,2025-03-25 11:48:37.577908
0,3741492,2296,1319,1796,-643500.0000000023,1377.2893772893772,2025-03-25 11:48:37.577982
0,3741748,2294,1321,1795,-500500.0000000018,1378.021978021978,2025-03-25 11:48:37.589769
0,3742004,2293,1321,1796,-500500.0000000018,1378.7545787545787,2025-03-25 11:48:37.596639
0,3742260,2294,1320,1795,-643500.0000000023,1378.021978021978,2025-03-25 11:48:37.596675
0,3742516,2295,1322,1795,-500500.0000000018,1376.5567765567764,2025-03-25 11:48:37.608916
0,3742772,2294,1319,1795,-500500.0000000018,1375.8241758241757,2025-03-25 11:48:37.627832
0,3743028,2294,1320,1795,-500500.0000000018,1377.2893772893772,2025-03-25 11:48:37.627880
0,3743284,2292,1317,1795,-500500.0000000018,1377.2893772893772,2025-03-25 11:48:37.642806
0,3743540,2292,1318,1796,-643500.0000000023,1377.2893772893772,2025-03-25 11:48:37.642841
0,3743796,2296,1321,1795,-643500.0000000023,1377.2893772893772,2025-03-25 11:48:37.652800
0,3744052,2293,1319,1795,-500500.0000000018,1376.5567765567764,2025-03-25 11:48:37.658828
0,3744308,2295,1321,1796,-500500.0000000018,1378.021978021978,2025-03-25 11:48:37.677803
0,3744564,2297,1320,1795,-500500.0000000018,1379.4871794871794,2025-03-25 11:48:37.677838
0,3744820,2297,1319,1793,-500500.0000000018,1376.5567765567764,2025-03-25 11:48:37.682800
0,3745076,2295,1319,1795,-500500.0000000018,1378.021978021978,2025-03-25 11:48:37.696777
0,3745332,2296,1320,1797,-500500.0000000018,1380.2197802197802,2025-03-25 11:48:37.701815
0,3745588,2293,1322,1797,-643500.0000000023,1379.4871794871794,2025-03-25 11:48:37.713827
0,3745844,2295,1317,1796,-643500.0000000023,1378.7545787545787,2025-03-25 11:48:37.713862
0,3746100,2296,1319,1794,-500500.0000000018,1377.2893772893772,2025-03-25 11:48:37.716708
0,3746356,2292,1319,1797,-500500.0000000018,1378.021978021978,2025-03-25 11:48:37.726816
0,3746612,2295,1321,1795,-500500.0000000018,1378.7545787545787,2025-03-25 11:48:37.738772
0,3746868,2294,1319,1794,-643500.0000000023,1378.021978021978,2025-03-25 11:48:37.745860
0,3747124,2297,1320,1796,-500500.0000000018,1378.021978021978,2025-03-25 11:48:37.745895
0,3747380,2295,1321,1793,-500500.0000000018,1375.8241758241757,2025-03-25 11:48:37.762795
0,3747636,2297,1320,1795,-500500.0000000018,1377.2893772893772,2025-03-25 11:48:37.767808
0,3747892,2295,1318,1796,-500500.0000000018,1378.7545787545787,2025-03-25 11:48:37.780691
0,3748148,2294,1320,1795,-500500.0000000018,1376.5567765567764,2025-03-25 11:48:37.786777
0,3748404,2294,1320,1795,-500500.0000000018,1375.8241758241757,2025-03-25 11:48:37.786811
0,3748660,2296,1317,1796,-500500.0000000018,1377.2893772893772,2025-03-25 11:48:37.812737
0,3748916,2295,1318,1795,-500500.0000000018,1378.7545787545787,2025-03-25 11:48:37.812771
0,3749172,2296,1317,1794,-500500.0000000018,1378.7545787545787,2025-03-25 11:48:37.812789
0,3749428,2294,1319,1794,-643500.0000000023,1377.2893772893772,2025-03-25 11:48:37.825871
0,3749684,2294,1322,1797,-500500.0000000018,1376.5567765567764,2025-03-25 11:48:37.825909
0,3749940,2294,1321,1796,-643500.0000000023,1380.2197802197802,2025-03-25 11:48:37.837753
0,3750196,2295,1318,1793,-500500.0000000018,1380.2197802197802,2025-03-25 11:48:37.851890
0,3750452,2297,1318,1792,-500500.0000000018,1378.7545787545787,2025-03-25 11:48:37.851923
0,3750708,2296,1320,1795,-500500.0000000018,1378.021978021978,2025-03-25 11:48:37.860725
0,3750964,2294,1320,1795,-500500.0000000018,1378.021978021978,2025-03-25 11:48:37.873918
0,3751220,2294,1321,1797,-500500.0000000018,1378.021978021978,2025-03-25 11:48:37.877713
0,3751476,2293,1321,1796,-500500.0000000018,1377.2893772893772,2025-03-25 11:48:37.877746
0,3751732,2296,1320,1794,-500500.0000000018,1378.7545787545787,2025-03-25 11:48:37.886800
0,3751988,2296,1319,1793,-500500.0000000018,1376.5567765567764,2025-03-25 11:48:37.900873
0,3752244,2293,1318,1796,-643500.0000000023,1376.5567765567764,2025-03-25 11:48:37.909953
0,3752500,2294,1320,1794,-500500.0000000018,1375.8241758241757,2025-03-25 11:48:37.922785
0,3752756,2293,1321,1797,-500500.0000000018,1376.5567765567764,2025-03-25 11:48:37.922819
0,3753012,2296,1320,1797,-500500.0000000018,1374.3589743589744,2025-03-25 11:48:37.931840
0,3753268,2298,1318,1794,-500500.0000000018,1375.8241758241757,2025-03-25 11:48:37.938786
0,3753524,2296,1315,1796,-500500.0000000018,1375.8241758241757,2025-03-25 11:48:37.952894
0,3753780,2295,1320,1797,-500500.0000000018,1375.8241758241757,2025-03-25 11:48:37.952928
0,3754036,2293,1320,1798,-500500.0000000018,1374.3589743589744,2025-03-25 11:48:37.957790
0,3754292,2295,1321,1797,-500500.0000000018,1376.5567765567764,2025-03-25 11:48:37.971930
0,3754548,2296,1321,1795,-500500.0000000018,1377.2893772893772,2025-03-25 11:48:37.982805
0,3754804,2296,1319,1797,-500500.0000000018,1381.6849816849815,2025-03-25 11:48:37.987824
0,3755060,2294,1318,1797,-500500.0000000018,1380.952380952381,2025-03-25 11:48:38.000835
0,3755316,2293,1320,1794,-500500.0000000018,1380.952380952381,2025-03-25 11:48:38.005776
0,3755572,2294,1322,1795,-500500.0000000018,1383.150183150183,2025-03-25 11:48:38.005809
0,3755828,2296,1323,1795,-500500.0000000018,1384.6153846153845,2025-03-25 11:48:38.018783
0,3756084,2295,1316,1795,-500500.0000000018,1386.080586080586,2025-03-25 11:48:38.027783
0,3756340,2296,1316,1793,-500500.0000000018,1383.150183150183,2025-03-25 11:48:38.027817
0,3756596,2294,1317,1797,-500500.0000000018,1382.4175824175823,2025-03-25 11:48:38.041855
0,3756852,2296,1321,1799,-500500.0000000018,1382.4175824175823,2025-03-25 11:48:38.046763
0,3757108,2293,1323,1797,-500500.0000000018,1383.150183150183,2025-03-25 11:48:38.060779
0,3757364,2298,1319,1795,-500500.0000000018,1381.6849816849815,2025-03-25 11:48:38.065833
0,3757620,2296,1317,1797,-643500.0000000023,1380.2197802197802,2025-03-25 11:48:38.082771
0,3757876,2296,1318,1795,-500500.0000000018,1378.7545787545787,2025-03-25 11:48:38.082806
0,3758132,2296,1319,1798,-500500.0000000018,1380.2197802197802,2025-03-25 11:48:38.086756
0,3758388,2294,1323,1799,-643500.0000000023,1380.952380952381,2025-03-25 11:48:38.103744
0,3758644,2296,1323,1794,-500500.0000000018,1379.4871794871794,2025-03-25 11:48:38.103777
0,3758900,2298,1320,1798,-500500.0000000018,1379.4871794871794,2025-03-25 11:48:38.110791
0,3759156,2297,1317,1795,-500500.0000000018,1377.2893772893772,2025-03-25 11:48:38.122762
0,3759412,2296,1318,1796,-500500.0000000018,1377.2893772893772,2025-03-25 11:48:38.126810
0,3759668,2293,1319,1794,-643500.0000000023,1375.091575091575,2025-03-25 11:48:38.145960
0,3759924,2293,1322,1797,-500500.0000000018,1377.2893772893772,2025-03-25 11:48:38.145995
0,3760180,2296,1324,1797,-500500.0000000018,1377.2893772893772,2025-03-25 11:48:38.153800
0,3760436,2295,1321,1794,-643500.0000000023,1380.2197802197802,2025-03-25 11:48:38.155800
0,3760692,2297,1317,1795,-643500.0000000023,1378.021978021978,2025-03-25 11:48:38.167787
0,3760948,2293,1318,1792,-643500.0000000023,1378.7545787545787,2025-03-25 11:48:38.167820
0,3761204,2292,1322,1795,-500500.0000000018,1377.2893772893772,2025-03-25 11:48:38.181798
0,3761460,2294,1322,1794,-500500.0000000018,1376.5567765567764,2025-03-25 11:48:38.193875
0,3761716,2295,1322,1795,-643500.0000000023,1379.4871794871794,2025-03-25 11:48:38.202796
0,3761972,2299,1321,1797,-500500.0000000018,1380.2197802197802,2025-03-25 11:48:38.202830
0,3762228,2296,1317,1794,-500500.0000000018,1378.7545787545787,2025-03-25 11:48:38.211880
0,3762484,2294,1319,1795,-500500.0000000018,1378.7545787545787,2025-03-25 11:48:38.221760
0,3762740,2293,1322,1796,-500500.0000000018,1377.2893772893772,2025-03-25 11:48:38.237782
0,3762996,2295,1323,1797,-500500.0000000018,1380.952380952381,2025-03-25 11:48:38.247791
0,3763252,2296,1320,1797,-500500.0000000018,1380.2197802197802,2025-03-25 11:48:38.257780
0,3763508,2296,1317,1795,-500500.0000000018,1380.2197802197802,2025-03-25 11:48:38.257815
0,3763764,2294,1316,1795,-500500.0000000018,1379.4871794871794,2025-03-25 11:48:38.263730
0,3764020,2295,1321,1799,-643500.0000000023,1380.952380952381,2025-03-25 11:48:38.271930
0,3764276,2293,1322,1795,-643500.0000000023,1379.4871794871794,2025-03-25 11:48:38.282782
0,3764532,2294,1322,1795,-500500.0000000018,1377.2893772893772,2025-03-25 11:48:38.282814
0,3764788,2295,1319,1798,-500500.0000000018,1375.8241758241757,2025-03-25 11:48:38.301737
0,3765044,2296,1319,1796,-643500.0000000023,1375.8241758241757,2025-03-25 11:48:38.306754
0,3765300,2295,1317,1797,-500500.0000000018,1377.2893772893772,2025-03-25 11:48:38.306786
0,3765556,2294,1319,1796,-643500.0000000023,1379.4871794871794,2025-03-25 11:48:38.320834
0,3765812,2292,1322,1797,-500500.0000000018,1376.5567765567764,2025-03-25 11:48:38.325829
0,3766068,2296,1319,1796,-500500.0000000018,1378.021978021978,2025-03-25 11:48:38.325863
0,3766324,2296,1317,1794,-500500.0000000018,1380.952380952381,2025-03-25 11:48:38.337818
0,3766580,2298,1319,1794,-500500.0000000018,1379.4871794871794,2025-03-25 11:48:38.352779
0,3766836,2297,1318,1795,-643500.0000000023,1379.4871794871794,2025-03-25 11:48:38.352824
0,3767092,2295,1322,1795,-643500.0000000023,1380.952380952381,2025-03-25 11:48:38.357792
0,3767348,2294,1321,1797,-643500.0000000023,1383.8827838827838,2025-03-25 11:48:38.370804
0,3767604,2295,1320,1796,-500500.0000000018,1386.080586080586,2025-03-25 11:48:38.378807
0,3767860,2295,1317,1796,-500500.0000000018,1384.6153846153845,2025-03-25 11:48:38.388772
0,3768116,2296,1319,1795,-500500.0000000018,1383.150183150183,2025-03-25 11:48:38.388805
0,3768372,2294,1319,1796,-500500.0000000018,1381.6849816849815,2025-03-25 11:48:38.398758
0,3768628,2295,1322,1796,-500500.0000000018,1383.8827838827838,2025-03-25 11:48:38.412734
0,3768884,2295,1322,1797,-500500.0000000018,1383.150183150183,2025-03-25 11:48:38.417772
0,3769140,2295,1322,1796,-500500.0000000018,1385.3479853479853,2025-03-25 11:48:38.417804
0,3769396,2295,1320,1793,-500500.0000000018,1382.4175824175823,2025-03-25 11:48:38.428711
0,3769652,2295,1319,1793,-500500.0000000018,1381.6849816849815,2025-03-25 11:48:38.443734
0,3769908,2294,1318,1793,-500500.0000000018,1383.150183150183,2025-03-25 11:48:38.448776
0,3770164,2295,1322,1793,-500500.0000000018,1382.4175824175823,2025-03-25 11:48:38.456662
0,3770420,2294,1321,1796,-643500.0000000023,1383.150183150183,2025-03-25 11:48:38.456697
0,3770676,2295,1320,1794,-643500.0000000023,1381.6849816849815,2025-03-25 11:48:38.468704
0,3770932,2297,1319,1796,-643500.0000000023,1380.2197802197802,2025-03-25 11:48:38.477751
0,3771188,2297,1320,1797,-500500.0000000018,1383.150183150183,2025-03-25 11:48:38.492769
0,3771444,2295,1319,1795,-500500.0000000018,1380.952380952381,2025-03-25 11:48:38.507784
0,3771700,2295,1321,1795,-500500.0000000018,1380.2197802197802,2025-03-25 11:48:38.510604
0,3771956,2295,1322,1795,-500500.0000000018,1381.6849816849815,2025-03-25 11:48:38.510636
0,3772212,2297,1318,1795,-500500.0000000018,1380.952380952381,2025-03-25 11:48:38.523759
0,3772468,2296,1319,1792,-500500.0000000018,1381.6849816849815,2025-03-25 11:48:38.525868
0,3772724,2295,1319,1792,-500500.0000000018,1380.2197802197802,2025-03-25 11:48:38.540792
0,3772980,2295,1320,1794,-643500.0000000023,1378.7545787545787,2025-03-25 11:48:38.540825
0,3773236,2295,1320,1798,-500500.0000000018,1380.2197802197802,2025-03-25 11:48:38.553790
0,3773492,2295,1318,1796,-500500.0000000018,1382.4175824175823,2025-03-25 11:48:38.560755
0,3773748,2296,1318,1796,-500500.0000000018,1380.2197802197802,2025-03-25 11:48:38.560788
0,3774004,2296,1318,1794,-643500.0000000023,1379.4871794871794,2025-03-25 11:48:38.581813
0,3774260,2295,1321,1796,-643500.0000000023,1380.952380952381,2025-03-25 11:48:38.581846
0,3774516,2296,1320,1793,-500500.0000000018,1380.952380952381,2025-03-25 11:48:38.586798
0,3774772,2295,1321,1794,-500500.0000000018,1383.150183150183,2025-03-25 11:48:38.598806
0,3775028,2297,1322,1795,-500500.0000000018,1383.150183150183,2025-03-25 11:48:38.598838
0,3775284,2298,1321,1794,-500500.0000000018,1384.6153846153845,2025-03-25 11:48:38.613814
0,3775540,2297,1318,1794,-500500.0000000018,1384.6153846153845,2025-03-25 11:48:38.617741
0,3775796,2295,1319,1794,-643500.0000000023,1384.6153846153845,2025-03-25 11:48:38.630824
0,3776052,2294,1319,1797,-500500.0000000018,1382.4175824175823,2025-03-25 11:48:38.636705
0,3776308,2295,1318,1798,-500500.0000000018,1383.8827838827838,2025-03-25 11:48:38.636735
0,3776564,2297,1319,1794,-500500.0000000018,1381.6849816849815,2025-03-25 11:48:38.648761
0,3776820,2296,1318,1794,-643500.0000000023,1382.4175824175823,2025-03-25 11:48:38.658776
0,3777076,2296,1319,1796,-500500.0000000018,1383.150183150183,2025-03-25 11:48:38.671761
0,3777332,2294,1321,1795,-643500.0000000023,1383.150183150183,2025-03-25 11:48:38.671791
0,3777588,2296,1321,1794,-500500.0000000018,1379.4871794871794,2025-03-25 11:48:38.680799
0,3777844,2295,1322,1795,-500500.0000000018,1378.7545787545787,2025-03-25 11:48:38.698751
0,3778100,2296,1321,1796,-500500.0000000018,1380.2197802197802,2025-03-25 11:48:38.713787
0,3778356,2296,1319,1796,-643500.0000000023,1381.6849816849815,2025-03-25 11:48:38.713818
0,3778612,2296,1319,1796,-500500.0000000018,1378.7545787545787,2025-03-25 11:48:38.722738
0,3778868,2294,1317,1794,-500500.0000000018,1378.021978021978,2025-03-25 11:48:38.727737
0,3779124,2294,1320,1795,-500500.0000000018,1380.952380952381,2025-03-25 11:48:38.739754
0,3779380,2295,1321,1796,-500500.0000000018,1380.952380952381,2025-03-25 11:48:38.748673
0,3779636,2297,1320,1797,-500500.0000000018,1380.2197802197802,2025-03-25 11:48:38.748709
0,3779892,2297,1320,1794,-500500.0000000018,1380.2197802197802,2025-03-25 11:48:38.770766
0,3780148,2293,1318,1795,-500500.0000000018,1382.4175824175823,2025-03-25 11:48:38.770799
0,3780404,2294,1320,1795,-500500.0000000018,1384.6153846153845,2025-03-25 11:48:38.778894
0,3780660,2294,1319,1792,-643500.0000000023,1386.8131868131868,2025-03-25 11:48:38.784737
0,3780916,2295,1321,1795,-500500.0000000018,1386.8131868131868,2025-03-25 11:48:38.784775
0,3781172,2296,1318,1795,-500500.0000000018,1384.6153846153845,2025-03-25 11:48:38.792809
0,3781428,2295,1319,1798,-500500.0000000018,1387.5457875457876,2025-03-25 11:48:38.798746
0,3781684,2294,1319,1796,-500500.0000000018,1387.5457875457876,2025-03-25 11:48:38.810801
0,3781940,2294,1320,1795,-500500.0000000018,1386.080586080586,2025-03-25 11:48:38.810835
0,3782196,2294,1321,1798,-500500.0000000018,1383.150183150183,2025-03-25 11:48:38.825791
0,3782452,2295,1321,1797,-500500.0000000018,1386.080586080586,2025-03-25 11:48:38.825824
0,3782708,2297,1320,1796,-643500.0000000023,1385.3479853479853,2025-03-25 11:48:38.838731
0,3782964,2296,1320,1796,-500500.0000000018,1383.8827838827838,2025-03-25 11:48:38.851905
0,3783220,2293,1321,1795,-643500.0000000023,1381.6849816849815,2025-03-25 11:48:38.851937
0,3783476,2295,1320,1797,-643500.0000000023,1379.4871794871794,2025-03-25 11:48:38.862783
0,3783732,2295,1321,1797,-500500.0000000018,1380.2197802197802,2025-03-25 11:48:38.878793
0,3783988,2295,1318,1798,-643500.0000000023,1380.952380952381,2025-03-25 11:48:38.878866
0,3784244,2295,1318,1796,-500500.0000000018,1380.2197802197802,2025-03-25 11:48:38.883633
0,3784500,2297,1320,1796,-500500.0000000018,1378.7545787545787,2025-03-25 11:48:38.885764
0,3784756,2294,1321,1795,-643500.0000000023,1378.7545787545787,2025-03-25 11:48:38.897761
0,3785012,2294,1322,1795,-500500.0000000018,1380.952380952381,2025-03-25 11:48:38.912897
0,3785268,2295,1320,1796,-500500.0000000018,1380.952380952381,2025-03-25 11:48:38.917776
0,3785524,2296,1318,1797,-643500.0000000023,1378.7545787545787,2025-03-25 11:48:38.917808
0,3785780,2295,1318,1794,-500500.0000000018,1377.2893772893772,2025-03-25 11:48:38.933807
0,3786036,2295,1318,1792,-500500.0000000018,1377.2893772893772,2025-03-25 11:48:38.938786
0,3786292,2296,1318,1794,-643500.0000000023,1380.952380952381,2025-03-25 11:48:38.955760
0,3786548,2296,1321,1794,-500500.0000000018,1383.150183150183,2025-03-25 11:48:38.961959
0,3786804,2296,1319,1796,-500500.0000000018,1383.8827838827838,2025-03-25 11:48:38.961991
0,3787060,2295,1316,1796,-500500.0000000018,1381.6849816849815,2025-03-25 11:48:38.973863
0,3787316,2296,1319,1795,-500500.0000000018,1385.3479853479853,2025-03-25 11:48:38.988863
0,3787572,2294,1321,1796,-500500.0000000018,1386.080586080586,2025-03-25 11:48:38.995783
0,3787828,2295,1320,1796,-643500.0000000023,1383.8827838827838,2025-03-25 11:48:38.995815
0,3788084,2296,1321,1794,-643500.0000000023,1383.8827838827838,2025-03-25 11:48:39.013935
0,3788340,2295,1319,1793,-500500.0000000018,1383.8827838827838,2025-03-25 11:48:39.015885
0,3788596,2296,1318,1795,-643500.0000000023,1383.8827838827838,2025-03-25 11:48:39.027904
0,3788852,2295,1320,1794,-500500.0000000018,1383.8827838827838,2025-03-25 11:48:39.042801
0,3789108,2295,1320,1797,-500500.0000000018,1381.6849816849815,2025-03-25 11:48:39.047828
0,3789364,2296,1319,1798,-500500.0000000018,1382.4175824175823,2025-03-25 11:48:39.047860
0,3789620,2296,1320,1796,-643500.0000000023,1382.4175824175823,2025-03-25 11:48:39.047878
0,3789876,2295,1318,1797,-643500.0000000023,1385.3479853479853,2025-03-25 11:48:39.061823
0,3790132,2295,1317,1795,-500500.0000000018,1383.150183150183,2025-03-25 11:48:39.066776
0,3790388,2294,1320,1795,-500500.0000000018,1383.8827838827838,2025-03-25 11:48:39.077754
0,3790644,2295,1322,1797,-643500.0000000023,1383.8827838827838,2025-03-25 11:48:39.077784
0,3790900,2294,1321,1795,-500500.0000000018,1385.3479853479853,2025-03-25 11:48:39.090795
0,3791156,2296,1319,1793,-643500.0000000023,1385.3479853479853,2025-03-25 11:48:39.096777
0,3791412,2296,1317,1795,-643500.0000000023,1383.8827838827838,2025-03-25 11:48:39.096808
0,3791668,2294,1319,1794,-643500.0000000023,1382.4175824175823,2025-03-25 11:48:39.108789
0,3791924,2292,1320,1795,-500500.0000000018,1383.150183150183,2025-03-25 11:48:39.123814
0,3792180,2296,1320,1795,-500500.0000000018,1381.6849816849815,2025-03-25 11:48:39.127783
0,3792436,2296,1319,1795,-500500.0000000018,1381.6849816849815,2025-03-25 11:48:39.142760
0,3792692,2295,1318,1796,-500500.0000000018,1380.2197802197802,2025-03-25 11:48:39.142792
0,3792948,2296,1317,1794,-500500.0000000018,1379.4871794871794,2025-03-25 11:48:39.152881
0,3793204,2296,1320,1797,-500500.0000000018,1380.952380952381,2025-03-25 11:48:39.158753
0,3793460,2297,1320,1795,-500500.0000000018,1381.6849816849815,2025-03-25 11:48:39.172764
0,3793716,2295,1322,1795,-500500.0000000018,1381.6849816849815,2025-03-25 11:48:39.172795
0,3793972,2295,1320,1794,-500500.0000000018,1382.4175824175823,2025-03-25 11:48:39.177932
0,3794228,2295,1318,1794,-500500.0000000018,1383.150183150183,2025-03-25 11:48:39.193811
0,3794484,2295,1320,1796,-500500.0000000018,1384.6153846153845,2025-03-25 11:48:39.198761
0,3794740,2297,1321,1798,-500500.0000000018,1387.5457875457876,2025-03-25 11:48:39.198793
0,3794996,2295,1319,1796,-500500.0000000018,1383.150183150183,2025-03-25 11:48:39.210816
0,3795252,2296,1321,1798,-643500.0000000023,1382.4175824175823,2025-03-25 11:48:39.222765
0,3795508,2295,1319,1796,-500500.0000000018,1382.4175824175823,2025-03-25 11:48:39.230882
0,3795764,2297,1320,1793,-643500.0000000023,1384.6153846153845,2025-03-25 11:48:39.240785
0,3796020,2295,1320,1795,-500500.0000000018,1381.6849816849815,2025-03-25 11:48:39.240816
0,3796276,2296,1322,1794,-500500.0000000018,1380.952380952381,2025-03-25 11:48:39.252808
0,3796532,2296,1319,1797,-500500.0000000018,1382.4175824175823,2025-03-25 11:48:39.259758
0,3796788,2294,1319,1795,-500500.0000000018,1383.8827838827838,2025-03-25 11:48:39.275746
0,3797044,2296,1318,1797,-643500.0000000023,1381.6849816849815,2025-03-25 11:48:39.282745
0,3797300,2294,1320,1796,-643500.0000000023,1380.2197802197802,2025-03-25 11:48:39.287807
0,3797556,2294,1319,1798,-500500.0000000018,1381.6849816849815,2025-03-25 11:48:39.287848
0,3797812,2294,1320,1797,-643500.0000000023,1384.6153846153845,2025-03-25 11:48:39.305813
0,3798068,2296,1321,1795,-643500.0000000023,1383.8827838827838,2025-03-25 11:48:39.307768
0,3798324,2294,1320,1796,-500500.0000000018,1385.3479853479853,2025-03-25 11:48:39.307817
0,3798580,2295,1322,1795,-500500.0000000018,1383.8827838827838,2025-03-25 11:48:39.330766
0,3798836,2296,1320,1794,-643500.0000000023,1386.8131868131868,2025-03-25 11:48:39.330799
0,3799092,2295,1322,1795,-500500.0000000018,1386.8131868131868,2025-03-25 11:48:39.342767
0,3799348,2296,1320,1795,-500500.0000000018,1386.8131868131868,2025-03-25 11:48:39.359794
0,3799604,2295,1320,1795,-643500.0000000023,1386.8131868131868,2025-03-25 11:48:39.359825
0,3799860,2294,1321,1796,-643500.0000000023,1385.3479853479853,2025-03-25 11:48:39.363726
0,3800116,2295,1322,1796,-643500.0000000023,1386.8131868131868,2025-03-25 11:48:39.376891
0,3800372,2295,1319,1797,-643500.0000000023,1388.278388278388,2025-03-25 11:48:39.383796
0,3800628,2293,1319,1795,-643500.0000000023,1385.3479853479853,2025-03-25 11:48:39.383829
0,3800884,2296,1319,1797,-643500.0000000023,1386.080586080586,2025-03-25 11:48:39.390866
0,3801140,2295,1321,1796,-500500.0000000018,1385.3479853479853,2025-03-25 11:48:39.405807
0,3801396,2295,1322,1794,-500500.0000000018,1384.6153846153845,2025-03-25 11:48:39.411770
0,3801652,2295,1319,1794,-500500.0000000018,1385.3479853479853,2025-03-25 11:48:39.423776
0,3801908,2296,1320,1794,-500500.0000000018,1384.6153846153845,2025-03-25 11:48:39.423809
0,3802164,2297,1317,1796,-500500.0000000018,1384.6153846153845,2025-03-25 11:48:39.435751
0,3802420,2295,1319,1794,-500500.0000000018,1382.4175824175823,2025-03-25 11:48:39.441825
0,3802676,2295,1320,1795,-500500.0000000018,1383.8827838827838,2025-03-25 11:48:39.453659
0,3802932,2294,1319,1798,-643500.0000000023,1385.3479853479853,2025-03-25 11:48:39.453693
0,3803188,2296,1320,1797,-500500.0000000018,1382.4175824175823,2025-03-25 11:48:39.457664
0,3803444,2296,1320,1795,-643500.0000000023,1384.6153846153845,2025-03-25 11:48:39.466657
0,3803700,2294,1318,1798,-500500.0000000018,1384.6153846153845,2025-03-25 11:48:39.478752
0,3803956,2296,1320,1795,-643500.0000000023,1385.3479853479853,2025-03-25 11:48:39.487725
0,3804212,2294,1320,1798,-643500.0000000023,1383.150183150183,2025-03-25 11:48:39.496704
0,3804468,2294,1322,1795,-500500.0000000018,1383.150183150183,2025-03-25 11:48:39.508856
0,3804724,2297,1321,1795,-643500.0000000023,1383.8827838827838,2025-03-25 11:48:39.508887
0,3804980,2295,1320,1795,-643500.0000000023,1384.6153846153845,2025-03-25 11:48:39.517802
0,3805236,2294,1319,1795,-643500.0000000023,1386.080586080586,2025-03-25 11:48:39.531920
0,3805492,2293,1319,1797,-500500.0000000018,1383.8827838827838,2025-03-25 11:48:39.536799
0,3805748,2294,1321,1798,-500500.0000000018,1385.3479853479853,2025-03-25 11:48:39.536830
0,3806004,2295,1323,1797,-500500.0000000018,1384.6153846153845,2025-03-25 11:48:39.552921
0,3806260,2297,1318,1796,-643500.0000000023,1386.080586080586,2025-03-25 11:48:39.557758
0,3806516,2294,1317,1794,-500500.0000000018,1386.080586080586,2025-03-25 11:48:39.570785
0,3806772,2293,1317,1794,-643500.0000000023,1384.6153846153845,2025-03-25 11:48:39.578743
0,3807028,2294,1321,1795,-643500.0000000023,1384.6153846153845,2025-03-25 11:48:39.578775
0,3807284,2295,1322,1796,-500500.0000000018,1385.3479853479853,2025-03-25 11:48:39.592903
0,3807540,2296,1322,1795,-500500.0000000018,1383.8827838827838,2025-03-25 11:48:39.615784
0,3807796,2298,1318,1796,-500500.0000000018,1383.150183150183,2025-03-25 11:48:39.615817
0,3808052,2296,1318,1795,-500500.0000000018,1385.3479853479853,2025-03-25 11:48:39.615835
0,3808308,2295,1317,1797,-500500.0000000018,1385.3479853479853,2025-03-25 11:48:39.632714
0,3808564,2295,1320,1797,-500500.0000000018,1383.8827838827838,2025-03-25 11:48:39.640774
0,3808820,2294,1322,1796,-500500.0000000018,1382.4175824175823,2025-03-25 11:48:39.646880
0,3809076,2296,1320,1797,-500500.0000000018,1383.8827838827838,2025-03-25 11:48:39.646912
0,3809332,2296,1320,1797,-500500.0000000018,1383.150183150183,2025-03-25 11:48:39.655859
0,3809588,2295,1318,1795,-500500.0000000018,1386.080586080586,2025-03-25 11:48:39.666933
0,3809844,2293,1321,1796,-500500.0000000018,1383.8827838827838,2025-03-25 11:48:39.680648
0,3810100,2294,1321,1796,-643500.0000000023,1383.8827838827838,2025-03-25 11:48:39.680699
0,3810356,2297,1320,1795,-500500.0000000018,1382.4175824175823,2025-03-25 11:48:39.684646
0,3810612,2296,1319,1796,-500500.0000000018,1384.6153846153845,2025-03-25 11:48:39.686657
0,3810868,2295,1318,1797,-500500.0000000018,1386.8131868131868,2025-03-25 11:48:39.702739
0,3811124,2293,1319,1799,-500500.0000000018,1384.6153846153845,2025-03-25 11:48:39.707736
0,3811380,2295,1320,1799,-643500.0000000023,1384.6153846153845,2025-03-25 11:48:39.707765
0,3811636,2295,1322,1799,-643500.0000000023,1383.8827838827838,2025-03-25 11:48:39.725799
0,3811892,2295,1321,1796,-500500.0000000018,1386.080586080586,2025-03-25 11:48:39.730761
0,3812148,2296,1319,1797,-500500.0000000018,1386.080586080586,2025-03-25 11:48:39.741720
0,3812404,2295,1317,1793,-500500.0000000018,1385.3479853479853,2025-03-25 11:48:39.741751
0,3812660,2294,1321,1795,-500500.0000000018,1385.3479853479853,2025-03-25 11:48:39.755777
0,3812916,2296,1322,1796,-643500.0000000023,1385.3479853479853,2025-03-25 11:48:39.755812
0,3813172,2296,1320,1795,-500500.0000000018,1386.8131868131868,2025-03-25 11:48:39.764770
0,3813428,2295,1318,1796,-500500.0000000018,1384.6153846153845,2025-03-25 11:48:39.787758
0,3813684,2296,1319,1793,-643500.0000000023,1383.8827838827838,2025-03-25 11:48:39.796748
0,3813940,2295,1316,1796,-500500.0000000018,1384.6153846153845,2025-03-25 11:48:39.796781
0,3814196,2295,1320,1797,-500500.0000000018,1386.080586080586,2025-03-25 11:48:39.796800
0,3814452,2295,1321,1796,-500500.0000000018,1387.5457875457876,2025-03-25 11:48:39.810767
0,3814708,2296,1319,1796,-500500.0000000018,1386.080586080586,2025-03-25 11:48:39.815809
0,3814964,2296,1320,1795,-500500.0000000018,1383.150183150183,2025-03-25 11:48:39.833727
0,3815220,2296,1320,1793,-500500.0000000018,1386.080586080586,2025-03-25 11:48:39.833759
0,3815476,2294,1319,1795,-643500.0000000023,1386.8131868131868,2025-03-25 11:48:39.842793
0,3815732,2293,1319,1797,-500500.0000000018,1385.3479853479853,2025-03-25 11:48:39.852643
0,3815988,2293,1319,1798,-643500.0000000023,1385.3479853479853,2025-03-25 11:48:39.852677
0,3816244,2296,1321,1799,-643500.0000000023,1386.8131868131868,2025-03-25 11:48:39.863696
0,3816500,2296,1319,1795,-500500.0000000018,1386.8131868131868,2025-03-25 11:48:39.872889
0,3816756,2296,1321,1796,-643500.0000000023,1388.278388278388,2025-03-25 11:48:39.886697
0,3817012,2295,1322,1794,-643500.0000000023,1386.8131868131868,2025-03-25 11:48:39.898688
0,3817268,2296,1320,1798,-500500.0000000018,1386.080586080586,2025-03-25 11:48:39.898720
0,3817524,2294,1321,1797,-643500.0000000023,1386.8131868131868,2025-03-25 11:48:39.906678
0,3817780,2296,1319,1794,-500500.0000000018,1387.5457875457876,2025-03-25 11:48:39.914711
0,3818036,2294,1319,1797,-500500.0000000018,1387.5457875457876,2025-03-25 11:48:39.928605
0,3818292,2296,1319,1794,-643500.0000000023,1387.5457875457876,2025-03-25 11:48:39.928637
0,3818548,2294,1320,1793,-643500.0000000023,1383.8827838827838,2025-03-25 11:48:39.933664
0,3818804,2295,1320,1795,-500500.0000000018,1386.080586080586,2025-03-25 11:48:39.944805
0,3819060,2296,1322,1795,-500500.0000000018,1386.8131868131868,2025-03-25 11:48:39.951675
0,3819316,2296,1321,1798,-643500.0000000023,1386.080586080586,2025-03-25 11:48:39.951712
0,3819572,2296,1320,1795,-500500.0000000018,1385.3479853479853,2025-03-25 11:48:39.967811
0,3819828,2297,1318,1795,-500500.0000000018,1384.6153846153845,2025-03-25 11:48:39.967848
0,3820084,2296,1319,1797,-500500.0000000018,1386.8131868131868,2025-03-25 11:48:39.981795
0,3820340,2296,1322,1797,-500500.0000000018,1388.278388278388,2025-03-25 11:48:39.997712
0,3820596,2294,1318,1798,-500500.0000000018,1386.8131868131868,2025-03-25 11:48:39.997743
0,3820852,2295,1322,1795,-643500.0000000023,1387.5457875457876,2025-03-25 11:48:40.013906
0,3821108,2294,1320,1796,-500500.0000000018,1387.5457875457876,2025-03-25 11:48:40.013938
0,3821364,2298,1322,1796,-643500.0000000023,1388.278388278388,2025-03-25 11:48:40.015770
0,3821620,2295,1319,1795,-500500.0000000018,1390.4761904761904,2025-03-25 11:48:40.028641
0,3821876,2295,1321,1795,-643500.0000000023,1386.8131868131868,2025-03-25 11:48:40.042792
0,3822132,2292,1320,1797,-500500.0000000018,1387.5457875457876,2025-03-25 11:48:40.042824
0,3822388,2296,1322,1797,-500500.0000000018,1389.0109890109889,2025-03-25 11:48:40.048784
0,3822644,2295,1321,1795,-643500.0000000023,1387.5457875457876,2025-03-25 11:48:40.061728
0,3822900,2295,1319,1796,-500500.0000000018,1385.3479853479853,2025-03-25 11:48:40.066770
0,3823156,2295,1318,1795,-500500.0000000018,1385.3479853479853,2025-03-25 11:48:40.083756
0,3823412,2295,1318,1797,-500500.0000000018,1385.3479853479853,2025-03-25 11:48:40.083787
0,3823668,2296,1321,1795,-500500.0000000018,1385.3479853479853,2025-03-25 11:48:40.087735
0,3823924,2295,1321,1795,-500500.0000000018,1382.4175824175823,2025-03-25 11:48:40.100646
0,3824180,2296,1319,1796,-500500.0000000018,1381.6849816849815,2025-03-25 11:48:40.115777
0,3824436,2298,1322,1797,-500500.0000000018,1382.4175824175823,2025-03-25 11:48:40.115823
0,3824692,2295,1320,1796,-500500.0000000018,1383.150183150183,2025-03-25 11:48:40.117828
0,3824948,2294,1320,1795,-643500.0000000023,1383.8827838827838,2025-03-25 11:48:40.127768
0,3825204,2296,1319,1796,-500500.0000000018,1385.3479853479853,2025-03-25 11:48:40.148743
0,3825460,2296,1320,1796,-643500.0000000023,1384.6153846153845,2025-03-25 11:48:40.148773
0,3825716,2296,1319,1796,-500500.0000000018,1385.3479853479853,2025-03-25 11:48:40.150720
0,3825972,2296,1320,1792,-500500.0000000018,1386.080586080586,2025-03-25 11:48:40.163748
0,3826228,2295,1320,1794,-500500.0000000018,1385.3479853479853,2025-03-25 11:48:40.167694
0,3826484,2294,1321,1796,-643500.0000000023,1383.8827838827838,2025-03-25 11:48:40.167725
0,3826740,2296,1322,1794,-643500.0000000023,1385.3479853479853,2025-03-25 11:48:40.180691
0,3826996,2294,1320,1795,-500500.0000000018,1383.8827838827838,2025-03-25 11:48:40.189813
0,3827252,2294,1320,1795,-500500.0000000018,1381.6849816849815,2025-03-25 11:48:40.201817
0,3827508,2295,1320,1794,-500500.0000000018,1383.8827838827838,2025-03-25 11:48:40.205695
0,3827764,2292,1320,1794,-500500.0000000018,1381.6849816849815,2025-03-25 11:48:40.205727
0,3828020,2295,1321,1796,-500500.0000000018,1382.4175824175823,2025-03-25 11:48:40.217841
0,3828276,2295,1320,1795,-500500.0000000018,1386.080586080586,2025-03-25 11:48:40.232800
0,3828532,2295,1321,1796,-500500.0000000018,1388.278388278388,2025-03-25 11:48:40.237758
0,3828788,2294,1319,1795,-500500.0000000018,1386.8131868131868,2025-03-25 11:48:40.250793
0,3829044,2295,1318,1796,-500500.0000000018,1387.5457875457876,2025-03-25 11:48:40.250823
0,3829300,2294,1320,1795,-500500.0000000018,1387.5457875457876,2025-03-25 11:48:40.258714
0,3829556,2295,1320,1796,-500500.0000000018,1389.7435897435896,2025-03-25 11:48:40.267747
0,3829812,2295,1321,1794,-500500.0000000018,1390.4761904761904,2025-03-25 11:48:40.282781
0,3830068,2295,1321,1795,-500500.0000000018,1387.5457875457876,2025-03-25 11:48:40.287703
0,3830324,2295,1319,1797,-500500.0000000018,1386.8131868131868,2025-03-25 11:48:40.287738
0,3830580,2294,1320,1793,-500500.0000000018,1389.0109890109889,2025-03-25 11:48:40.300667
0,3830836,2297,1320,1795,-500500.0000000018,1389.0109890109889,2025-03-25 11:48:40.313797
0,3831092,2294,1320,1796,-500500.0000000018,1387.5457875457876,2025-03-25 11:48:40.313841
0,3831348,2294,1318,1798,-643500.0000000023,1387.5457875457876,2025-03-25 11:48:40.330760
0,3831604,2296,1320,1796,-643500.0000000023,1386.080586080586,2025-03-25 11:48:40.330792
0,3831860,2295,1317,1796,-643500.0000000023,1386.8131868131868,2025-03-25 11:48:40.337892
0,3832116,2295,1320,1796,-500500.0000000018,1384.6153846153845,2025-03-25 11:48:40.346779
0,3832372,2294,1318,1794,-500500.0000000018,1382.4175824175823,2025-03-25 11:48:40.360727
0,3832628,2296,1322,1797,-643500.0000000023,1383.8827838827838,2025-03-25 11:48:40.360772
0,3832884,2294,1320,1798,-500500.0000000018,1382.4175824175823,2025-03-25 11:48:40.377810
0,3833140,2295,1320,1794,-500500.0000000018,1384.6153846153845,2025-03-25 11:48:40.377841
0,3833396,2294,1320,1793,-500500.0000000018,1383.150183150183,2025-03-25 11:48:40.390890
0,3833652,2294,1320,1796,-500500.0000000018,1383.8827838827838,2025-03-25 11:48:40.390922
0,3833908,2295,1320,1793,-500500.0000000018,1381.6849816849815,2025-03-25 11:48:40.399760
0,3834164,2295,1320,1794,-643500.0000000023,1383.150183150183,2025-03-25 11:48:40.417729
0,3834420,2294,1319,1795,-500500.0000000018,1384.6153846153845,2025-03-25 11:48:40.420791
0,3834676,2296,1319,1794,-500500.0000000018,1386.080586080586,2025-03-25 11:48:40.420821
0,3834932,2293,1320,1796,-500500.0000000018,1384.6153846153845,2025-03-25 11:48:40.431691
0,3835188,2294,1323,1796,-500500.0000000018,1389.0109890109889,2025-03-25 11:48:40.440823
0,3835444,2296,1319,1796,-500500.0000000018,1389.7435897435896,2025-03-25 11:48:40.450804
0,3835700,2296,1319,1795,-643500.0000000023,1387.5457875457876,2025-03-25 11:48:40.450835
0,3835956,2295,1317,1795,-500500.0000000018,1386.8131868131868,2025-03-25 11:48:40.467644
0,3836212,2294,1319,1796,-643500.0000000023,1386.080586080586,2025-03-25 11:48:40.467679
0,3836468,2295,1322,1796,-500500.0000000018,1386.8131868131868,2025-03-25 11:48:40.480809
0,3836724,2296,1319,1799,-643500.0000000023,1388.278388278388,2025-03-25 11:48:40.489887
0,3836980,2295,1319,1795,-500500.0000000018,1383.8827838827838,2025-03-25 11:48:40.489935
0,3837236,2299,1320,1800,-643500.0000000023,1386.8131868131868,2025-03-25 11:48:40.505808
0,3837492,2295,1318,1797,-500500.0000000018,1386.080586080586,2025-03-25 11:48:40.505832
0,3837748,2294,1320,1799,-500500.0000000018,1388.278388278388,2025-03-25 11:48:40.523812
0,3838004,2295,1319,1796,-500500.0000000018,1389.0109890109889,2025-03-25 11:48:40.528844
0,3838260,2296,1319,1796,-643500.0000000023,1388.278388278388,2025-03-25 11:48:40.541840
0,3838516,2296,1319,1794,-500500.0000000018,1386.080586080586,2025-03-25 11:48:40.541864
0,3838772,2296,1319,1797,-500500.0000000018,1387.5457875457876,2025-03-25 11:48:40.551792
0,3839028,2294,1321,1796,-500500.0000000018,1386.8131868131868,2025-03-25 11:48:40.563762
0,3839284,2294,1322,1798,-643500.0000000023,1386.080586080586,2025-03-25 11:48:40.573855
0,3839540,2293,1319,1795,-500500.0000000018,1384.6153846153845,2025-03-25 11:48:40.586768
0,3839796,2296,1320,1797,-643500.0000000023,1385.3479853479853,2025-03-25 11:48:40.586797
0,3840052,2296,1319,1794,-643500.0000000023,1386.8131868131868,2025-03-25 11:48:40.595852
0,3840308,2294,1318,1795,-643500.0000000023,1386.8131868131868,2025-03-25 11:48:40.607800
0,3840564,2294,1317,1795,-500500.0000000018,1386.080586080586,2025-03-25 11:48:40.612779
0,3840820,2295,1321,1797,-500500.0000000018,1388.278388278388,2025-03-25 11:48:40.612826
0,3841076,2295,1324,1798,-500500.0000000018,1388.278388278388,2025-03-25 11:48:40.623812
0,3841332,2295,1319,1797,-500500.0000000018,1387.5457875457876,2025-03-25 11:48:40.642786
0,3841588,2294,1317,1795,-500500.0000000018,1387.5457875457876,2025-03-25 11:48:40.646838
0,3841844,2297,1319,1798,-643500.0000000023,1386.8131868131868,2025-03-25 11:48:40.646885
0,3842100,2294,1320,1799,-500500.0000000018,1386.080586080586,2025-03-25 11:48:40.655640
0,3842356,2295,1321,1793,-643500.0000000023,1388.278388278388,2025-03-25 11:48:40.655693
0,3842612,2294,1321,1793,-500500.0000000018,1387.5457875457876,2025-03-25 11:48:40.673703
0,3842868,2296,1319,1794,-643500.0000000023,1387.5457875457876,2025-03-25 11:48:40.673731
0,3843124,2295,1320,1794,-643500.0000000023,1386.8131868131868,2025-03-25 11:48:40.677706
0,3843380,2295,1319,1793,-500500.0000000018,1388.278388278388,2025-03-25 11:48:40.693639
0,3843636,2294,1321,1796,-500500.0000000018,1387.5457875457876,2025-03-25 11:48:40.697684
0,3843892,2294,1322,1798,-643500.0000000023,1389.0109890109889,2025-03-25 11:48:40.707791
0,3844148,2297,1320,1796,-500500.0000000018,1388.278388278388,2025-03-25 11:48:40.707836
0,3844404,2296,1320,1795,-500500.0000000018,1388.278388278388,2025-03-25 11:48:40.718675
0,3844660,2297,1319,1796,-500500.0000000018,1389.0109890109889,2025-03-25 11:48:40.728063
0,3844916,2295,1317,1796,-643500.0000000023,1389.7435897435896,2025-03-25 11:48:40.740470
0,3845172,2294,1321,1795,-500500.0000000018,1386.080586080586,2025-03-25 11:48:40.740512
0,3845428,2294,1319,1793,-500500.0000000018,1386.8131868131868,2025-03-25 11:48:40.758772
0,3845684,2296,1319,1797,-500500.0000000018,1386.8131868131868,2025-03-25 11:48:40.758811
0,3845940,2296,1319,1796,-500500.0000000018,1387.5457875457876,2025-03-25 11:48:40.770676
0,3846196,2296,1320,1795,-643500.0000000023,1385.3479853479853,2025-03-25 11:48:40.781603
0,3846452,2293,1319,1794,-500500.0000000018,1385.3479853479853,2025-03-25 11:48:40.791521
0,3846708,2294,1320,1796,-500500.0000000018,1383.150183150183,2025-03-25 11:48:40.791560
0,3846964,2294,1323,1796,-500500.0000000018,1384.6153846153845,2025-03-25 11:48:40.801548
0,3847220,2296,1319,1795,-643500.0000000023,1385.3479853479853,2025-03-25 11:48:40.808695
0,3847476,2295,1319,1793,-500500.0000000018,1383.150183150183,2025-03-25 11:48:40.808753
0,3847732,2296,1319,1794,-500500.0000000018,1383.8827838827838,2025-03-25 11:48:40.820769
0,3847988,2294,1319,1795,-500500.0000000018,1385.3479853479853,2025-03-25 11:48:40.831606
0,3848244,2293,1321,1795,-500500.0000000018,1386.8131868131868,2025-03-25 11:48:40.845710
0,3848500,2293,1322,1796,-500500.0000000018,1385.3479853479853,2025-03-25 11:48:40.845806
0,3848756,2296,1321,1794,-500500.0000000018,1387.5457875457876,2025-03-25 11:48:40.861614
0,3849012,2297,1320,1794,-643500.0000000023,1391.2087912087911,2025-03-25 11:48:40.861666
0,3849268,2295,1319,1794,-500500.0000000018,1390.4761904761904,2025-03-25 11:48:40.870559
0,3849524,2294,1319,1797,-643500.0000000023,1390.4761904761904,2025-03-25 11:48:40.888635
0,3849780,2293,1321,1795,-500500.0000000018,1389.7435897435896,2025-03-25 11:48:40.888677
0,3850036,2296,1320,1795,-500500.0000000018,1391.2087912087911,2025-03-25 11:48:40.888700
0,3850292,2297,1321,1796,-643500.0000000023,1391.2087912087911,2025-03-25 11:48:40.902630
0,3850548,2297,1318,1795,-500500.0000000018,1392.6739926739926,2025-03-25 11:48:40.908856
0,3850804,2295,1316,1795,-500500.0000000018,1393.4065934065934,2025-03-25 11:48:40.917842
0,3851060,2294,1318,1797,-643500.0000000023,1391.2087912087911,2025-03-25 11:48:40.917883
0,3851316,2293,1321,1793,-500500.0000000018,1390.4761904761904,2025-03-25 11:48:40.931836
0,3851572,2294,1322,1794,-500500.0000000018,1391.2087912087911,2025-03-25 11:48:40.945813
0,3851828,2297,1319,1796,-500500.0000000018,1391.9413919413919,2025-03-25 11:48:40.953952
0,3852084,2298,1317,1792,-500500.0000000018,1390.4761904761904,2025-03-25 11:48:40.953992
0,3852340,2293,1318,1796,-500500.0000000018,1389.0109890109889,2025-03-25 11:48:40.960866
0,3852596,2292,1321,1795,-500500.0000000018,1391.2087912087911,2025-03-25 11:48:40.972843
0,3852852,2293,1321,1796,-643500.0000000023,1389.7435897435896,2025-03-25 11:48:40.983749
0,3853108,2295,1322,1795,-500500.0000000018,1389.7435897435896,2025-03-25 11:48:40.998783
0,3853364,2295,1320,1794,-500500.0000000018,1385.3479853479853,2025-03-25 11:48:40.998823
0,3853620,2295,1317,1792,-500500.0000000018,1386.080586080586,2025-03-25 11:48:41.016950
0,3853876,2295,1318,1796,-500500.0000000018,1386.080586080586,2025-03-25 11:48:41.017008
0,3854132,2294,1322,1797,-500500.0000000018,1387.5457875457876,2025-03-25 11:48:41.023816
0,3854388,2295,1322,1795,-500500.0000000018,1386.8131868131868,2025-03-25 11:48:41.035869
0,3854644,2294,1321,1797,-500500.0000000018,1385.3479853479853,2025-03-25 11:48:41.035909
0,3854900,2297,1318,1796,-500500.0000000018,1386.8131868131868,2025-03-25 11:48:41.040967
0,3855156,2295,1317,1795,-500500.0000000018,1386.8131868131868,2025-03-25 11:48:41.065802
0,3855412,2295,1320,1796,-643500.0000000023,1386.8131868131868,2025-03-25 11:48:41.065841
0,3855668,2291,1321,1796,-500500.0000000018,1386.080586080586,2025-03-25 11:48:41.065862
0,3855924,2293,1323,1796,-500500.0000000018,1385.3479853479853,2025-03-25 11:48:41.085816
0,3856180,2296,1322,1795,-500500.0000000018,1387.5457875457876,2025-03-25 11:48:41.085857
0,3856436,2297,1317,1795,-643500.0000000023,1389.0109890109889,2025-03-25 11:48:41.087882
0,3856692,2297,1316,1795,-500500.0000000018,1391.9413919413919,2025-03-25 11:48:41.096792
0,3856948,2294,1319,1793,-500500.0000000018,1389.0109890109889,2025-03-25 11:48:41.115798
0,3857204,2295,1322,1795,-643500.0000000023,1388.278388278388,2025-03-25 11:48:41.115833
0,3857460,2295,1322,1795,-500500.0000000018,1389.7435897435896,2025-03-25 11:48:41.117715
0,3857716,2295,1319,1796,-500500.0000000018,1390.4761904761904,2025-03-25 11:48:41.142639
0,3857972,2297,1318,1795,-500500.0000000018,1386.8131868131868,2025-03-25 11:48:41.142662
0,3858228,2295,1321,1796,-643500.0000000023,1386.8131868131868,2025-03-25 11:48:41.142682
0,3858484,2293,1321,1794,-500500.0000000018,1387.5457875457876,2025-03-25 11:48:41.145691
0,3858740,2293,1324,1797,-643500.0000000023,1389.7435897435896,2025-03-25 11:48:41.161755
0,3858996,2296,1322,1794,-500500.0000000018,1386.080586080586,2025-03-25 11:48:41.167654
0,3859252,2295,1318,1797,-500500.0000000018,1385.3479853479853,2025-03-25 11:48:41.167677
0,3859508,2296,1317,1796,-500500.0000000018,1385.3479853479853,2025-03-25 11:48:41.180681
0,3859764,2293,1317,1796,-500500.0000000018,1386.080586080586,2025-03-25 11:48:41.190711
0,3860020,2293,1320,1795,-500500.0000000018,1387.5457875457876,2025-03-25 11:48:41.197707
0,3860276,2295,1323,1797,-500500.0000000018,1389.7435897435896,2025-03-25 11:48:41.209735
0,3860532,2297,1321,1796,-500500.0000000018,1389.0109890109889,2025-03-25 11:48:41.209759
0,3860788,2297,1318,1794,-500500.0000000018,1392.6739926739926,2025-03-25 11:48:41.223686
0,3861044,2293,1320,1793,-643500.0000000023,1394.8717948717947,2025-03-25 11:48:41.229005
0,3861300,2294,1322,1795,-500500.0000000018,1393.4065934065934,2025-03-25 11:48:41.243643
0,3861556,2295,1322,1797,-500500.0000000018,1390.4761904761904,2025-03-25 11:48:41.245739
0,3861812,2295,1321,1795,-500500.0000000018,1389.7435897435896,2025-03-25 11:48:41.256745
0,3862068,2295,1320,1797,-500500.0000000018,1391.9413919413919,2025-03-25 11:48:41.256773
0,3862324,2295,1317,1795,-500500.0000000018,1392.6739926739926,2025-03-25 11:48:41.270670
0,3862580,2294,1319,1797,-500500.0000000018,1391.9413919413919,2025-03-25 11:48:41.283674
0,3862836,2294,1321,1797,-500500.0000000018,1390.4761904761904,2025-03-25 11:48:41.288756
0,3863092,2296,1321,1796,-500500.0000000018,1391.9413919413919,2025-03-25 11:48:41.290843
0,3863348,2297,1321,1796,-500500.0000000018,1389.0109890109889,2025-03-25 11:48:41.302628
0,3863604,2296,1318,1796,-500500.0000000018,1389.0109890109889,2025-03-25 11:48:41.308683
0,3863860,2296,1320,1796,-500500.0000000018,1388.278388278388,2025-03-25 11:48:41.308715
0,3864116,2293,1320,1795,-643500.0000000023,1386.080586080586,2025-03-25 11:48:41.329837
0,3864372,2293,1324,1797,-643500.0000000023,1387.5457875457876,2025-03-25 11:48:41.329921
0,3864628,2294,1320,1793,-643500.0000000023,1388.278388278388,2025-03-25 11:48:41.341754
0,3864884,2294,1320,1795,-500500.0000000018,1387.5457875457876,2025-03-25 11:48:41.353723
0,3865140,2294,1317,1796,-643500.0000000023,1389.7435897435896,2025-03-25 11:48:41.362817
0,3865396,2295,1318,1796,-500500.0000000018,1388.278388278388,2025-03-25 11:48:41.362848
0,3865652,2295,1322,1797,-500500.0000000018,1389.0109890109889,2025-03-25 11:48:41.380665
0,3865908,2294,1322,1797,-500500.0000000018,1391.2087912087911,2025-03-25 11:48:41.397751
0,3866164,2296,1320,1795,-500500.0000000018,1389.7435897435896,2025-03-25 11:48:41.397777
0,3866420,2298,1319,1796,-500500.0000000018,1390.4761904761904,2025-03-25 11:48:41.403851
0,3866676,2294,1319,1795,-500500.0000000018,1389.7435897435896,2025-03-25 11:48:41.415628
0,3866932,2295,1319,1796,-500500.0000000018,1391.2087912087911,2025-03-25 11:48:41.418705
0,3867188,2295,1320,1796,-500500.0000000018,1389.7435897435896,2025-03-25 11:48:41.436469
0,3867444,2296,1321,1799,-643500.0000000023,1386.8131868131868,2025-03-25 11:48:41.436501
0,3867700,2295,1318,1796,-643500.0000000023,1386.8131868131868,2025-03-25 11:48:41.438677
0,3867956,2296,1318,1796,-500500.0000000018,1386.8131868131868,2025-03-25 11:48:41.446718
0,3868212,2295,1317,1797,-643500.0000000023,1386.080586080586,2025-03-25 11:48:41.446741
0,3868468,2297,1319,1797,-643500.0000000023,1388.278388278388,2025-03-25 11:48:41.446751
0,3868724,2295,1317,1795,-643500.0000000023,1385.3479853479853,2025-03-25 11:48:41.460635
0,3868980,2295,1322,1794,-500500.0000000018,1389.0109890109889,2025-03-25 11:48:41.466620
0,3869236,2295,1317,1793,-500500.0000000018,1389.7435897435896,2025-03-25 11:48:41.482682
0,3869492,2294,1319,1795,-643500.0000000023,1389.0109890109889,2025-03-25 11:48:41.487600
0,3869748,2296,1319,1793,-643500.0000000023,1389.0109890109889,2025-03-25 11:48:41.487624
